Time(ms),GPS Time(ms),Lat,Lon,Accuracy,GPS Altitude,GPS Speed,GPS Bearing,Map Bearing,Snapped Lat,Snapped Lon,Snapped Start Node,Snapped End Node,WiFi Time(ms),Wifi Lat,Wifi Lon,Wifi Accuracy,Wifi Altitude,GPS to Wifi Distance,Accel Sensor Time(ms),Ax,Ay,Az,Gyro Sensor Time(ms),Gx,Gy,Gz,Magn Sensor Time(ms),Mx,My,Mz,Pressure Sensor Time(ms),Pressure,Temperature Sensor Time(ms),Temperature,Light Sensor Time(ms),Light,EKF Elevation,Vertical Velocity,Google Elevation
1746544176601,1746536747898,48.537772,35.079384,21,0,0,0,0,0,0,0,0,0,0,0,0,0,0,0,0,0,0,0,0,0,0,0,0,0,0,1746544176830,1003.861,0,0,0,0,20.23442,0.1591952,25.67483
1746544176601,1746536747898,48.537772,35.079384,21,0,0,0,0,0,0,0,0,0,0,0,0,0,0,0,0,0,0,0,0,0,0,0,0,0,0,1746544176830,1003.861,1746544176601,13,0,0,20.23442,0.1591952,25.67483
1746544176652,1746536747898,48.537772,35.079384,21,0,0,0,0,48.5376373917,35.0789939068,7697433698,7697433695,0,0,0,0,0,0,1746544176803,0.2213361,1.251446,8.499306,0,0,0,0,0,0,0,0,1746544176830,1003.861,1746544176601,13,0,0,20.23442,0.1591952,25.67483
1746544176655,1746536747898,48.537772,35.079384,21,0,0,0,0,48.5376373917,35.0789939068,7697433698,7697433695,0,0,0,0,0,0,1746544176803,0.2213361,1.251446,8.499306,1746544176810,-0.01771457,0.02794626,0.005803049,0,0,0,0,1746544176830,1003.861,1746544176601,13,0,0,20.23442,0.1591952,25.67483
1746544176685,1746536747898,48.537772,35.079384,21,0,0,0,0,48.5376397834,35.0789808137,7697433698,7697433695,0,0,0,0,0,0,1746544176803,0.2213361,1.251446,8.499306,1746544176810,-0.01771457,0.02794626,0.005803049,0,0,0,0,1746544176830,1003.861,1746544176601,13,0,0,20.23442,0.1591952,25.67483
1746544176693,1746536747898,48.537772,35.079384,21,0,0,0,0,48.5376397834,35.0789808137,7697433698,7697433695,0,0,0,0,0,0,1746544176803,0.2213361,1.251446,8.499306,1746544176810,-0.01771457,0.02794626,0.005803049,1746544176856,-14.4625,2.825,-16.275,1746544176830,1003.861,1746544176601,13,0,0,20.23442,0.1591952,25.67483
1746544176717,1746536747898,48.537772,35.079384,21,0,0,0,0,48.5376397834,35.0789808137,7697433698,7697433695,0,0,0,0,0,0,1746544176872,0.3613162,1.16351,7.313064,1746544176810,-0.01771457,0.02794626,0.005803049,1746544176856,-14.4625,2.825,-16.275,1746544176830,1003.861,1746544176601,13,0,0,20.23785,0.09485815,25.67483
1746544176720,1746536747898,48.537772,35.079384,21,0,0,0,0,48.5376397834,35.0789808137,7697433698,7697433695,0,0,0,0,0,0,1746544176872,0.3613162,1.16351,7.313064,1746544176869,0.05100575,0.00503949,0.0003054236,1746544176856,-14.4625,2.825,-16.275,1746544176830,1003.861,1746544176601,13,0,0,20.23785,0.09485815,25.67483
1746544176725,1746544176053,48.536525,35.078854,10,4,3,16,0,48.5376421751,35.0789677205,7697433698,7697433695,0,0,0,0,0,0,1746544176872,0.3613162,1.16351,7.313064,1746544176869,0.05100575,0.00503949,0.0003054236,1746544176856,-14.4625,2.825,-16.275,1746544176830,1003.861,1746544176601,13,0,0,20.23785,0.09485815,25.67483
1746544177105,1746544176053,48.536525,35.078854,10,4,3,16,-74.5769729698,48.5376582565,35.0788796231,7697433695,7113309357,0,0,0,0,0,0,1746544176872,0.3613162,1.16351,7.313064,1746544177264,0.01466033,0.02137965,0.004886778,1746544176856,-14.4625,2.825,-16.275,1746544176830,1003.861,1746544176601,13,0,0,20.23785,0.09485815,25.67483
1746544177108,1746544176053,48.536525,35.078854,10,4,3,16,-74.5769729698,48.5376582565,35.0788796231,7697433695,7113309357,0,0,0,0,0,0,1746544177269,-0.1597209,2.088336,9.459426,1746544177264,0.01466033,0.02137965,0.004886778,1746544176856,-14.4625,2.825,-16.275,1746544176830,1003.861,1746544176601,13,0,0,20.23975,-0.004414305,25.67483
1746544177131,1746544176053,48.536525,35.078854,10,4,3,16,-74.5938983295,48.5376606456,35.0788665289,7697433695,7113309357,0,0,0,0,0,0,1746544177269,-0.1597209,2.088336,9.459426,1746544177264,0.01466033,0.02137965,0.004886778,1746544177295,-18.4,1.55,-16.475,1746544176830,1003.861,1746544176601,13,0,0,20.23975,-0.004414305,25.67483
1746544177135,1746544176053,48.536525,35.078854,10,4,3,16,-74.5938983295,48.5376606456,35.0788665289,7697433695,7113309357,0,0,0,0,0,0,1746544177269,-0.1597209,2.088336,9.459426,1746544177297,0.01649288,-0.01359135,0.009468133,1746544177295,-18.4,1.55,-16.475,1746544176830,1003.861,1746544176601,13,0,0,20.23975,-0.004414305,25.67483
1746544177138,1746544176053,48.536525,35.078854,10,4,3,16,-74.5938983295,48.5376606456,35.0788665289,7697433695,7113309357,0,0,0,0,0,0,1746544177298,0.4606183,1.454238,9.175279,1746544177297,0.01649288,-0.01359135,0.009468133,1746544177295,-18.4,1.55,-16.475,1746544176830,1003.861,1746544176601,13,0,0,20.23942,-0.00963636,25.67483
1746544177164,1746544176053,48.536525,35.078854,10,4,3,16,-74.5938983538,48.5376630347,35.0788534346,7697433695,7113309357,0,0,0,0,0,0,1746544177298,0.4606183,1.454238,9.175279,1746544177326,0.0004581354,-0.02107423,0.0129805,1746544177295,-18.4,1.55,-16.475,1746544176830,1003.861,1746544176601,13,0,0,20.23942,-0.00963636,25.67483
1746544177168,1746544176053,48.536525,35.078854,10,4,3,16,-74.5938983538,48.5376630347,35.0788534346,7697433695,7113309357,0,0,0,0,0,0,1746544177326,0.276371,1.714457,8.79482,1746544177326,0.0004581354,-0.02107423,0.0129805,1746544177295,-18.4,1.55,-16.475,1746544176830,1003.861,1746544176601,13,0,0,20.23893,-0.0241034,25.67483
1746544177195,1746544176053,48.536525,35.078854,10,4,3,16,-74.5938983538,48.5376630347,35.0788534346,7697433695,7113309357,0,0,0,0,0,0,1746544177357,0.1968097,1.459622,9.056833,1746544177326,0.0004581354,-0.02107423,0.0129805,1746544177295,-18.4,1.55,-16.475,1746544176830,1003.861,1746544176601,13,0,0,20.23793,-0.04740867,25.67483
1746544177199,1746544176053,48.536525,35.078854,10,4,3,16,-74.5938983538,48.5376630347,35.0788534346,7697433695,7113309357,0,0,0,0,0,0,1746544177357,0.1968097,1.459622,9.056833,1746544177359,0.003970507,-0.005344913,0.008246438,1746544177295,-18.4,1.55,-16.475,1746544176830,1003.861,1746544176601,13,0,0,20.23793,-0.04740867,25.67483
1746544177211,1746544176053,48.536525,35.078854,10,4,3,16,-74.5938982647,48.5376654239,35.0788403404,7697433695,7113309357,0,0,0,0,0,0,1746544177357,0.1968097,1.459622,9.056833,1746544177359,0.003970507,-0.005344913,0.008246438,1746544177372,-15.7,2.975,-17.0375,1746544176830,1003.861,1746544176601,13,0,0,20.23793,-0.04740867,25.67483
1746544177225,1746544176053,48.536525,35.078854,10,4,3,16,-74.5938982647,48.5376654239,35.0788403404,7697433695,7113309357,0,0,0,0,0,0,1746544177357,0.1968097,1.459622,9.056833,1746544177388,0.01130067,-0.00167983,0.008399149,1746544177372,-15.7,2.975,-17.0375,1746544176830,1003.861,1746544176601,13,0,0,20.23793,-0.04740867,25.67483
1746544177230,1746544176053,48.536525,35.078854,10,4,3,16,-74.5938982647,48.5376654239,35.0788403404,7697433695,7113309357,0,0,0,0,0,0,1746544177387,0.1411765,1.527219,9.619147,1746544177388,0.01130067,-0.00167983,0.008399149,1746544177372,-15.7,2.975,-17.0375,1746544176830,1003.861,1746544176601,13,0,0,20.23616,-0.06656252,25.67483
1746544177235,1746544176053,48.536525,35.078854,10,4,3,16,-74.5938982647,48.5376654239,35.0788403404,7697433695,7113309357,0,0,0,0,0,0,1746544177387,0.1411765,1.527219,9.619147,1746544177388,0.01130067,-0.00167983,0.008399149,1746544177372,-15.7,2.975,-17.0375,1746544177397,1003.887,1746544176601,13,0,0,20.23414,-0.06822513,25.67483
1746544177245,1746544176053,48.536525,35.078854,10,4,3,16,-74.5938983495,48.537667813,35.0788272462,7697433695,7113309357,0,0,0,0,0,0,1746544177387,0.1411765,1.527219,9.619147,1746544177402,-0.01221695,0.06673507,0.004886778,1746544177372,-15.7,2.975,-17.0375,1746544177397,1003.887,1746544176601,13,0,0,20.23414,-0.06822513,25.67483
1746544177254,1746544176053,48.536525,35.078854,10,4,3,16,-74.5938983495,48.537667813,35.0788272462,7697433695,7113309357,0,0,0,0,0,0,1746544177417,0.06819545,1.328017,9.275179,1746544177402,-0.01221695,0.06673507,0.004886778,1746544177372,-15.7,2.975,-17.0375,1746544177397,1003.887,1746544176601,13,0,0,20.23344,-0.07266386,25.67483
1746544177272,1746544176053,48.536525,35.078854,10,4,3,16,-74.5938983495,48.537667813,35.0788272462,7697433695,7113309357,0,0,0,0,0,0,1746544177417,0.06819545,1.328017,9.275179,1746544177429,0.008399149,0.0284044,0.001221695,1746544177372,-15.7,2.975,-17.0375,1746544177397,1003.887,1746544176601,13,0,0,20.23344,-0.07266386,25.67483
1746544177278,1746544176053,48.536525,35.078854,10,4,3,16,-74.5938983495,48.537667813,35.0788272462,7697433695,7113309357,1745036663730,48.541256,35.078904,120,0,526.076804103,1746544177417,0.06819545,1.328017,9.275179,1746544177429,0.008399149,0.0284044,0.001221695,1746544177372,-15.7,2.975,-17.0375,1746544177397,1003.887,1746544176601,13,0,0,20.23344,-0.07266386,25.67483
1746544177280,1746544176053,48.536525,35.078854,10,4,3,16,-74.5938983495,48.537667813,35.0788272462,7697433695,7113309357,1745036663730,48.541256,35.078904,120,0,526.076804103,1746544177439,-0.3726821,1.149751,9.861421,1746544177429,0.008399149,0.0284044,0.001221695,1746544177372,-15.7,2.975,-17.0375,1746544177397,1003.887,1746544176601,13,0,0,20.23189,-0.08137409,25.67483
1746544177287,1746544176053,48.536525,35.078854,10,4,3,16,-74.5938983495,48.5376695,35.078818,7113309357,7697433737,1745036663730,48.541256,35.078904,120,0,526.076804103,1746544177439,-0.3726821,1.149751,9.861421,1746544177429,0.008399149,0.0284044,0.001221695,1746544177451,-14.0625,2.225,-17.15,1746544177397,1003.887,1746544176601,13,0,0,20.23189,-0.08137409,25.67483
1746544177290,1746544176053,48.536525,35.078854,10,4,3,16,-74.5938983495,48.5376695,35.078818,7113309357,7697433737,1745036663730,48.541256,35.078904,120,0,526.076804103,1746544177439,-0.3726821,1.149751,9.861421,1746544177451,-0.002443389,0.01725644,-0.0001527118,1746544177451,-14.0625,2.225,-17.15,1746544177397,1003.887,1746544176601,13,0,0,20.23189,-0.08137409,25.67483
1746544177316,1746544176053,48.536525,35.078854,10,4,3,16,-163.624480701,48.5376608716,35.0788141707,7113309357,7697433737,1745036663730,48.541256,35.078904,120,0,526.076804103,1746544177439,-0.3726821,1.149751,9.861421,1746544177477,0.003665084,0.08979455,-0.005803049,1746544177451,-14.0625,2.225,-17.15,1746544177397,1003.887,1746544176601,13,0,0,20.23189,-0.08137409,25.67483
1746544177320,1746544176053,48.536525,35.078854,10,4,3,16,-163.624480701,48.5376608716,35.0788141707,7113309357,7697433737,1745036663730,48.541256,35.078904,120,0,526.076804103,1746544177478,-0.07836494,0.6861419,10.44108,1746544177477,0.003665084,0.08979455,-0.005803049,1746544177451,-14.0625,2.225,-17.15,1746544177397,1003.887,1746544176601,13,0,0,20.23013,-0.07892937,25.67483
1746544177346,1746544176053,48.536525,35.078854,10,4,3,16,-163.624480729,48.5376436148,35.0788065122,7113309357,7697433737,1745036663730,48.541256,35.078904,120,0,526.076804103,1746544177508,0.1651048,0.8889336,9.669994,1746544177477,0.003665084,0.08979455,-0.005803049,1746544177451,-14.0625,2.225,-17.15,1746544177397,1003.887,1746544176601,13,0,0,20.22754,-0.0541854,25.67483
1746544177349,1746544176053,48.536525,35.078854,10,4,3,16,-163.624480729,48.5376436148,35.0788065122,7113309357,7697433737,1745036663730,48.541256,35.078904,120,0,526.076804103,1746544177508,0.1651048,0.8889336,9.669994,1746544177511,0.02932067,0.03726168,-0.0009162709,1746544177451,-14.0625,2.225,-17.15,1746544177397,1003.887,1746544176601,13,0,0,20.22754,-0.0541854,25.67483
1746544177367,1746544176053,48.536525,35.078854,10,4,3,16,-163.624480631,48.5376349864,35.0788026829,7113309357,7697433737,1745036663730,48.541256,35.078904,120,0,526.076804103,1746544177508,0.1651048,0.8889336,9.669994,1746544177511,0.02932067,0.03726168,-0.0009162709,1746544177528,-15.825,1.9,-15.75,1746544177397,1003.887,1746544176601,13,0,0,20.22754,-0.0541854,25.67483
1746544177377,1746544176053,48.536525,35.078854,10,4,3,16,-163.624480768,48.537626358,35.0787988536,7113309357,7697433737,1745036663730,48.541256,35.078904,120,0,526.076804103,1746544177539,0.1663012,0.8123633,9.656236,1746544177511,0.02932067,0.03726168,-0.0009162709,1746544177528,-15.825,1.9,-15.75,1746544177397,1003.887,1746544176601,13,0,0,20.22587,-0.05701173,25.67483
1746544177381,1746544176053,48.536525,35.078854,10,4,3,16,-163.624480768,48.537626358,35.0787988536,7113309357,7697433737,1745036663730,48.541256,35.078904,120,0,526.076804103,1746544177539,0.1663012,0.8123633,9.656236,1746544177538,0.005955761,0.0284044,-0,1746544177528,-15.825,1.9,-15.75,1746544177397,1003.887,1746544176601,13,0,0,20.22587,-0.05701173,25.67483
1746544177412,1746544176053,48.536525,35.078854,10,4,3,16,-163.624480696,48.5376091012,35.0787911951,7113309357,7697433737,1745036663730,48.541256,35.078904,120,0,526.076804103,1746544177575,0.2578266,0.8201399,10.28794,1746544177538,0.005955761,0.0284044,-0,1746544177528,-15.825,1.9,-15.75,1746544177397,1003.887,1746544176601,13,0,0,20.22405,-0.060559,25.67483
1746544177417,1746544176053,48.536525,35.078854,10,4,3,16,-163.624480736,48.5376004728,35.0787873658,7113309357,7697433737,1745036663730,48.541256,35.078904,120,0,526.076804103,1746544177575,0.2578266,0.8201399,10.28794,1746544177577,0.006108473,0.02000525,0.004734066,1746544177528,-15.825,1.9,-15.75,1746544177397,1003.887,1746544176601,13,0,0,20.22405,-0.060559,25.67483
1746544177444,1746544176053,48.536525,35.078854,10,4,3,16,-163.624480718,48.5375918444,35.0787835365,7113309357,7697433737,1745036663730,48.541256,35.078904,120,0,526.076804103,1746544177575,0.2578266,0.8201399,10.28794,1746544177605,0.003817795,0.004275931,0.005803049,1746544177528,-15.825,1.9,-15.75,1746544177397,1003.887,1746544176601,13,0,0,20.22405,-0.060559,25.67483
1746544177449,1746544176053,48.536525,35.078854,10,4,3,16,-163.624480718,48.537583216,35.0787797072,7113309357,7697433737,1745036663730,48.541256,35.078904,120,0,526.076804103,1746544177605,0.07178468,0.9852448,10.18864,1746544177605,0.003817795,0.004275931,0.005803049,1746544177528,-15.825,1.9,-15.75,1746544177397,1003.887,1746544176601,13,0,0,20.2222,-0.04192019,25.67483
1746544177454,1746544176053,48.536525,35.078854,10,4,3,16,-163.624480718,48.537583216,35.0787797072,7113309357,7697433737,1745036663730,48.541256,35.078904,120,0,526.076804103,1746544177605,0.07178468,0.9852448,10.18864,1746544177605,0.003817795,0.004275931,0.005803049,1746544177611,-16.8,1.5625,-15.3875,1746544177397,1003.887,1746544176601,13,0,0,20.2222,-0.04192019,25.67483
1746544177466,1746544176053,48.536525,35.078854,10,4,3,16,-163.624480747,48.5375745876,35.078775878,7113309357,7697433737,1745036663730,48.541256,35.078904,120,0,526.076804103,1746544177605,0.07178468,0.9852448,10.18864,1746544177622,-0.0006108473,-0.02473931,0.008093726,1746544177611,-16.8,1.5625,-15.3875,1746544177397,1003.887,1746544176601,13,0,0,20.2222,-0.04192019,25.67483
1746544177476,1746544176053,48.536525,35.078854,10,4,3,16,-163.624480658,48.5375659592,35.0787720487,7113309357,7697433737,1745036663730,48.541256,35.078904,120,0,526.076804103,1746544177638,-0.1489532,1.524228,10.08276,1746544177622,-0.0006108473,-0.02473931,0.008093726,1746544177611,-16.8,1.5625,-15.3875,1746544177397,1003.887,1746544176601,13,0,0,20.22114,-0.02882586,25.67483
1746544177501,1746544176053,48.536525,35.078854,10,4,3,16,-163.624480658,48.5375573308,35.0787682194,7113309357,7697433737,1745036663730,48.541256,35.078904,120,0,526.076804103,1746544177638,-0.1489532,1.524228,10.08276,1746544177662,0.02947338,0.01924169,0.01114796,1746544177611,-16.8,1.5625,-15.3875,1746544177397,1003.887,1746544176601,13,0,0,20.22114,-0.02882586,25.67483
1746544177505,1746544176053,48.536525,35.078854,10,4,3,16,-163.624480658,48.5375487024,35.0787643902,7113309357,7697433737,1745036663730,48.541256,35.078904,120,0,526.076804103,1746544177663,0.1034896,1.689333,9.384052,1746544177662,0.02947338,0.01924169,0.01114796,1746544177611,-16.8,1.5625,-15.3875,1746544177397,1003.887,1746544176601,13,0,0,20.22041,-0.01553844,25.67483
1746544177534,1746544176053,48.536525,35.078854,10,4,3,16,-163.624480658,48.5375314457,35.0787567317,7113309357,7697433737,1745036663730,48.541256,35.078904,120,0,526.076804103,1746544177696,-0.101695,1.479961,9.415159,1746544177662,0.02947338,0.01924169,0.01114796,1746544177611,-16.8,1.5625,-15.3875,1746544177397,1003.887,1746544176601,13,0,0,20.21994,-0.02223218,25.67483
1746544177538,1746544176053,48.536525,35.078854,10,4,3,16,-163.624480658,48.5375314457,35.0787567317,7113309357,7697433737,1745036663730,48.541256,35.078904,120,0,526.076804103,1746544177696,-0.101695,1.479961,9.415159,1746544177662,0.02947338,0.01924169,0.01114796,1746544177698,-17.175,1.1375,-15.225,1746544177397,1003.887,1746544176601,13,0,0,20.21994,-0.02223218,25.67483
1746544177542,1746544176053,48.536525,35.078854,10,4,3,16,-163.624480658,48.5375314457,35.0787567317,7113309357,7697433737,1745036663730,48.541256,35.078904,120,0,526.076804103,1746544177696,-0.101695,1.479961,9.415159,1746544177696,0.02260135,-0.00503949,0.009620844,1746544177698,-17.175,1.1375,-15.225,1746544177397,1003.887,1746544176601,13,0,0,20.21994,-0.02223218,25.67483
1746544177567,1746544176053,48.536525,35.078854,10,4,3,16,-163.624480658,48.5375141889,35.0787490731,7113309357,7697433737,1745036663730,48.541256,35.078904,120,0,526.076804103,1746544177729,0.02333002,1.668994,9.368499,1746544177696,0.02260135,-0.00503949,0.009620844,1746544177698,-17.175,1.1375,-15.225,1746544177397,1003.887,1746544176601,13,0,0,20.21906,-0.03076241,25.67483
1746544177572,1746544176053,48.536525,35.078854,10,4,3,16,-163.624480658,48.5375141889,35.0787490731,7113309357,7697433737,1745036663730,48.541256,35.078904,120,0,526.076804103,1746544177729,0.02333002,1.668994,9.368499,1746544177728,-0.007941014,-0.03695626,0.01282779,1746544177698,-17.175,1.1375,-15.225,1746544177397,1003.887,1746544176601,13,0,0,20.21906,-0.03076241,25.67483
1746544177598,1746544176053,48.536525,35.078854,10,4,3,16,-163.624480658,48.5374969321,35.0787414146,7113309357,7697433737,1745036663730,48.541256,35.078904,120,0,526.076804103,1746544177759,0.005982057,1.898705,9.34816,1746544177728,-0.007941014,-0.03695626,0.01282779,1746544177698,-17.175,1.1375,-15.225,1746544177397,1003.887,1746544176601,13,0,0,20.2179,-0.03987637,25.67483
1746544177603,1746544176053,48.536525,35.078854,10,4,3,16,-163.624480658,48.5374969321,35.0787414146,7113309357,7697433737,1745036663730,48.541256,35.078904,120,0,526.076804103,1746544177759,0.005982057,1.898705,9.34816,1746544177762,-0.01252237,-0.04795151,0.006566608,1746544177698,-17.175,1.1375,-15.225,1746544177397,1003.887,1746544176601,13,0,0,20.2179,-0.03987637,25.67483
1746544177615,1746544176053,48.536525,35.078854,10,4,3,16,-163.624480658,48.5374883038,35.0787375854,7113309357,7697433737,1745036663730,48.541256,35.078904,120,0,526.076804103,1746544177759,0.005982057,1.898705,9.34816,1746544177762,-0.01252237,-0.04795151,0.006566608,1746544177778,-17.8875,1.7125,-15.825,1746544177397,1003.887,1746544176601,13,0,0,20.2179,-0.03987637,25.67483
1746544177631,1746544176053,48.536525,35.078854,10,4,3,16,-163.624480658,48.5374796754,35.0787337561,7113309357,7697433737,1745036663730,48.541256,35.078904,120,0,526.076804103,1746544177793,0.9505488,1.525424,9.354142,1746544177762,-0.01252237,-0.04795151,0.006566608,1746544177778,-17.8875,1.7125,-15.825,1746544177397,1003.887,1746544176601,13,0,0,20.21658,-0.04784074,25.67483
1746544177641,1746544176053,48.536525,35.078854,10,4,3,16,-163.624480658,48.537471047,35.0787299269,7113309357,7697433737,1745036663730,48.541256,35.078904,120,0,526.076804103,1746544177793,0.9505488,1.525424,9.354142,1746544177795,-0.03603999,-0.04474456,0.003970507,1746544177778,-17.8875,1.7125,-15.825,1746544177397,1003.887,1746544176601,13,0,0,20.21658,-0.04784074,25.67483
1746544177666,1746544176053,48.536525,35.078854,10,4,3,16,-163.022886965,48.5374631,35.0787264,7697433737,7113309358,1745036663730,48.541256,35.078904,120,0,526.076804103,1746544177829,0.2434697,2.248057,9.249456,1746544177795,-0.03603999,-0.04474456,0.003970507,1746544177778,-17.8875,1.7125,-15.825,1746544177397,1003.887,1746544176601,13,0,0,20.21478,-0.05785897,25.67483
1746544177672,1746544176053,48.536525,35.078854,10,4,3,16,-163.022886965,48.5374544987,35.0787224341,7697433737,7113309358,1745036663730,48.541256,35.078904,120,0,526.076804103,1746544177829,0.2434697,2.248057,9.249456,1746544177831,-0.01710372,-0.06368083,0.002748813,1746544177778,-17.8875,1.7125,-15.825,1746544177397,1003.887,1746544176601,13,0,0,20.21478,-0.05785897,25.67483
1746544177694,1746544176053,48.536525,35.078854,10,4,3,16,-163.02288685,48.5374458974,35.0787184683,7697433737,7113309358,1745036663730,48.541256,35.078904,120,0,526.076804103,1746544177829,0.2434697,2.248057,9.249456,1746544177831,-0.01710372,-0.06368083,0.002748813,1746544177856,-17.725,1.8625,-16.6625,1746544177397,1003.887,1746544176601,13,0,0,20.21478,-0.05785897,25.67483
1746544177699,1746544176053,48.536525,35.078854,10,4,3,16,-163.02288685,48.5374458974,35.0787184683,7697433737,7113309358,1745036663730,48.541256,35.078904,120,0,526.076804103,1746544177862,0.1399801,1.622334,9.222537,1746544177831,-0.01710372,-0.06368083,0.002748813,1746544177856,-17.725,1.8625,-16.6625,1746544177397,1003.887,1746544176601,13,0,0,20.21251,-0.06858147,25.67483
1746544177703,1746544176053,48.536525,35.078854,10,4,3,16,-163.02288685,48.5374458974,35.0787184683,7697433737,7113309358,1745036663730,48.541256,35.078904,120,0,526.076804103,1746544177862,0.1399801,1.622334,9.222537,1746544177863,-0.0452027,-0.02092152,0.001527118,1746544177856,-17.725,1.8625,-16.6625,1746544177397,1003.887,1746544176601,13,0,0,20.21251,-0.06858147,25.67483
1746544177730,1746544176053,48.536525,35.078854,10,4,3,16,-163.022886888,48.5374372961,35.0787145024,7697433737,7113309358,1745036663730,48.541256,35.078904,120,0,526.076804103,1746544177892,0.2243271,1.944168,8.868998,1746544177863,-0.0452027,-0.02092152,0.001527118,1746544177856,-17.725,1.8625,-16.6625,1746544177397,1003.887,1746544176601,13,0,0,20.21002,-0.08242547,25.67483
1746544177739,1746544176053,48.536525,35.078854,10,4,3,16,-163.022886888,48.5374372961,35.0787145024,7697433737,7113309358,1745036663730,48.541256,35.078904,120,0,526.076804103,1746544177892,0.2243271,1.944168,8.868998,1746544177895,-0.04871507,-0.03176406,0.002748813,1746544177856,-17.725,1.8625,-16.6625,1746544177397,1003.887,1746544176601,13,0,0,20.21002,-0.08242547,25.67483
1746544177765,1746544176053,48.536525,35.078854,10,4,3,16,-163.022886918,48.5374286948,35.0787105365,7697433737,7113309358,1745036663730,48.541256,35.078904,120,0,526.076804103,1746544177927,0.2614159,2.200799,9.388838,1746544177895,-0.04871507,-0.03176406,0.002748813,1746544177856,-17.725,1.8625,-16.6625,1746544177397,1003.887,1746544176601,13,0,0,20.20722,-0.1040093,25.67483
1746544177768,1746544176053,48.536525,35.078854,10,4,3,16,-163.022886918,48.5374286948,35.0787105365,7697433737,7113309358,1745036663730,48.541256,35.078904,120,0,526.076804103,1746544177927,0.2614159,2.200799,9.388838,1746544177929,-0.05436541,0.004275931,0.002901525,1746544177856,-17.725,1.8625,-16.6625,1746544177397,1003.887,1746544176601,13,0,0,20.20722,-0.1040093,25.67483
1746544177774,1746544176053,48.536525,35.078854,10,4,3,16,-163.022886907,48.5374200935,35.0787065706,7697433737,7113309358,1745036663730,48.541256,35.078904,120,0,526.076804103,1746544177927,0.2614159,2.200799,9.388838,1746544177929,-0.05436541,0.004275931,0.002901525,1746544177936,-15.975,1.9,-16.0875,1746544177397,1003.887,1746544176601,13,0,0,20.20722,-0.1040093,25.67483
1746544177781,1746544176053,48.536525,35.078854,10,4,3,16,-163.022886907,48.5374200935,35.0787065706,7697433737,7113309358,1745036663730,48.541256,35.078904,120,0,526.076804103,1746544177927,0.2614159,2.200799,9.388838,1746544177929,-0.05436541,0.004275931,0.002901525,1746544177936,-15.975,1.9,-16.0875,1746544177945,1003.884,1746544176601,13,0,0,20.20348,-0.1096628,25.67483
1746544177796,1746544176053,48.536525,35.078854,10,4,3,16,-163.022886933,48.5374200935,35.0787065706,7697433737,7113309358,1745036663730,48.541256,35.078904,120,0,526.076804103,1746544177959,0.5533403,1.940579,9.126823,1746544177929,-0.05436541,0.004275931,0.002901525,1746544177936,-15.975,1.9,-16.0875,1746544177945,1003.884,1746544176601,13,0,0,20.20143,-0.1181541,25.67483
1746544177806,1746544176053,48.536525,35.078854,10,4,3,16,-163.022886933,48.5374114922,35.0787026048,7697433737,7113309358,1745036663730,48.541256,35.078904,120,0,526.076804103,1746544177959,0.5533403,1.940579,9.126823,1746544177961,-0.05115846,-0.03054236,0.006261184,1746544177936,-15.975,1.9,-16.0875,1746544177945,1003.884,1746544176601,13,0,0,20.20143,-0.1181541,25.67483
1746544177832,1746544176053,48.536525,35.078854,10,4,3,16,-163.022886918,48.5374028909,35.0786986389,7697433737,7113309358,1745036663730,48.541256,35.078904,120,0,526.076804103,1746544177959,0.5533403,1.940579,9.126823,1746544177994,-0.05787778,-0.006566608,0.006413896,1746544177936,-15.975,1.9,-16.0875,1746544177945,1003.884,1746544176601,13,0,0,20.20143,-0.1181541,25.67483
1746544177836,1746544176053,48.536525,35.078854,10,4,3,16,-163.022886918,48.5374028909,35.0786986389,7697433737,7113309358,1745036663730,48.541256,35.078904,120,0,526.076804103,1746544177994,-0.04486543,2.641676,9.062218,1746544177994,-0.05787778,-0.006566608,0.006413896,1746544177936,-15.975,1.9,-16.0875,1746544177945,1003.884,1746544176601,13,0,0,20.19973,-0.1248218,25.67483
1746544177855,1746544176053,48.536525,35.078854,10,4,3,16,-163.022886918,48.5373942896,35.078694673,7697433737,7113309358,1745036663730,48.541256,35.078904,120,0,526.076804103,1746544177994,-0.04486543,2.641676,9.062218,1746544177994,-0.05787778,-0.006566608,0.006413896,1746544178020,-15.1,2.6375,-15.9125,1746544177945,1003.884,1746544176601,13,0,0,20.19973,-0.1248218,25.67483
1746544177865,1746544176053,48.536525,35.078854,10,4,3,16,-163.022886918,48.5373942896,35.078694673,7697433737,7113309358,1745036663730,48.541256,35.078904,120,0,526.076804103,1746544177994,-0.04486543,2.641676,9.062218,1746544178027,-0.04291202,-0.009926268,0.007788302,1746544178020,-15.1,2.6375,-15.9125,1746544177945,1003.884,1746544176601,13,0,0,20.19973,-0.1248218,25.67483
1746544177868,1746544176053,48.536525,35.078854,10,4,3,16,-163.022886918,48.5373942896,35.078694673,7697433737,7113309358,1745036663730,48.541256,35.078904,120,0,526.076804103,1746544178027,-0.3744767,2.813959,9.046664,1746544178027,-0.04291202,-0.009926268,0.007788302,1746544178020,-15.1,2.6375,-15.9125,1746544177945,1003.884,1746544176601,13,0,0,20.19511,-0.139141,25.67483
1746544177894,1746544176053,48.536525,35.078854,10,4,3,16,-163.022886918,48.5373856883,35.0786907072,7697433737,7113309358,1745036663730,48.541256,35.078904,120,0,526.076804103,1746544178056,0.4283153,1.923829,8.89113,1746544178027,-0.04291202,-0.009926268,0.007788302,1746544178020,-15.1,2.6375,-15.9125,1746544177945,1003.884,1746544176601,13,0,0,20.1903,-0.1522176,25.67483
1746544177899,1746544176053,48.536525,35.078854,10,4,3,16,-163.022886918,48.5373856883,35.0786907072,7697433737,7113309358,1745036663730,48.541256,35.078904,120,0,526.076804103,1746544178056,0.4283153,1.923829,8.89113,1746544178055,-0.06001574,-0.02107423,0.00503949,1746544178020,-15.1,2.6375,-15.9125,1746544177945,1003.884,1746544176601,13,0,0,20.1903,-0.1522176,25.67483
1746544177926,1746544176053,48.536525,35.078854,10,4,3,16,-163.022886918,48.537377087,35.0786867413,7697433737,7113309358,1745036663730,48.541256,35.078904,120,0,526.076804103,1746544178056,0.4283153,1.923829,8.89113,1746544178089,-0.04291202,-0.01588203,0.007635591,1746544178020,-15.1,2.6375,-15.9125,1746544177945,1003.884,1746544176601,13,0,0,20.1903,-0.1522176,25.67483
1746544177930,1746544176053,48.536525,35.078854,10,4,3,16,-163.022886918,48.5373684858,35.0786827755,7697433737,7113309358,1745036663730,48.541256,35.078904,120,0,526.076804103,1746544178088,-0.3122634,2.104487,9.136993,1746544178089,-0.04291202,-0.01588203,0.007635591,1746544178020,-15.1,2.6375,-15.9125,1746544177945,1003.884,1746544176601,13,0,0,20.1856,-0.1721695,25.67483
1746544177935,1746544176053,48.536525,35.078854,10,4,3,16,-163.022886918,48.5373684858,35.0786827755,7697433737,7113309358,1745036663730,48.541256,35.078904,120,0,526.076804103,1746544178088,-0.3122634,2.104487,9.136993,1746544178089,-0.04291202,-0.01588203,0.007635591,1746544178099,-16.275,2,-15.725,1746544177945,1003.884,1746544176601,13,0,0,20.1856,-0.1721695,25.67483
1746544177960,1746544176053,48.536525,35.078854,10,4,3,16,-163.022886918,48.5373598845,35.0786788096,7697433737,7113309358,1745036663730,48.541256,35.078904,120,0,526.076804103,1746544178119,-0.2315056,2.537588,8.968898,1746544178089,-0.04291202,-0.01588203,0.007635591,1746544178099,-16.275,2,-15.725,1746544177945,1003.884,1746544176601,13,0,0,20.17987,-0.1856943,25.67483
1746544177965,1746544176053,48.536525,35.078854,10,4,3,16,-163.022886918,48.5373598845,35.0786788096,7697433737,7113309358,1745036663730,48.541256,35.078904,120,0,526.076804103,1746544178119,-0.2315056,2.537588,8.968898,1746544178121,-0.01130067,-0.04199575,0.001832542,1746544178099,-16.275,2,-15.725,1746544177945,1003.884,1746544176601,13,0,0,20.17987,-0.1856943,25.67483
1746544177993,1746544176053,48.536525,35.078854,10,4,3,16,-163.022886918,48.5373512832,35.0786748437,7697433737,7113309358,1745036663730,48.541256,35.078904,120,0,526.076804103,1746544178119,-0.2315056,2.537588,8.968898,1746544178155,0.01206423,-0.02947338,0.0009162709,1746544178099,-16.275,2,-15.725,1746544177945,1003.884,1746544176601,13,0,0,20.17987,-0.1856943,25.67483
1746544177997,1746544176053,48.536525,35.078854,10,4,3,16,-163.022886918,48.5373512832,35.0786748437,7697433737,7113309358,1745036663730,48.541256,35.078904,120,0,526.076804103,1746544178156,-0.4283153,1.916651,9.579665,1746544178155,0.01206423,-0.02947338,0.0009162709,1746544178099,-16.275,2,-15.725,1746544177945,1003.884,1746544176601,13,0,0,20.17387,-0.2014916,25.67483
1746544178014,1746544176053,48.536525,35.078854,10,4,3,16,-163.022886918,48.5373462,35.0786725,7113309358,7697433732,1745036663730,48.541256,35.078904,120,0,526.076804103,1746544178156,-0.4283153,1.916651,9.579665,1746544178155,0.01206423,-0.02947338,0.0009162709,1746544178175,-16.875,1.0375,-15.4125,1746544177945,1003.884,1746544176601,13,0,0,20.17387,-0.2014916,25.67483
1746544178023,1746544176053,48.536525,35.078854,10,4,3,16,-165.624024275,48.5373374884,35.0786691278,7113309358,7697433732,1745036663730,48.541256,35.078904,120,0,526.076804103,1746544178185,-0.1292124,1.898705,9.929018,1746544178155,0.01206423,-0.02947338,0.0009162709,1746544178175,-16.875,1.0375,-15.4125,1746544177945,1003.884,1746544176601,13,0,0,20.1664,-0.2020743,25.67483
1746544178027,1746544176053,48.536525,35.078854,10,4,3,16,-165.624024275,48.5373374884,35.0786691278,7113309358,7697433732,1745036663730,48.541256,35.078904,120,0,526.076804103,1746544178185,-0.1292124,1.898705,9.929018,1746544178188,0.01954711,0.02748813,0.003665084,1746544178175,-16.875,1.0375,-15.4125,1746544177945,1003.884,1746544176601,13,0,0,20.1664,-0.2020743,25.67483
1746544178054,1746544176053,48.536525,35.078854,10,4,3,16,-165.624024207,48.5373287768,35.0786657555,7113309358,7697433732,1745036663730,48.541256,35.078904,120,0,526.076804103,1746544178216,0.1842473,2.490928,10.22214,1746544178188,0.01954711,0.02748813,0.003665084,1746544178175,-16.875,1.0375,-15.4125,1746544177945,1003.884,1746544176601,13,0,0,20.16068,-0.192874,25.67483
1746544178061,1746544176053,48.536525,35.078854,10,4,3,16,-165.624024312,48.5373287768,35.0786657555,7113309358,7697433732,1745036663730,48.541256,35.078904,120,0,526.076804103,1746544178216,0.1842473,2.490928,10.22214,1746544178217,0.01572932,-0.03176406,0.005803049,1746544178175,-16.875,1.0375,-15.4125,1746544177945,1003.884,1746544176601,13,0,0,20.16068,-0.192874,25.67483
1746544178088,1746544176053,48.536525,35.078854,10,4,3,16,-165.624024277,48.5373113535,35.078659011,7113309358,7697433732,1745036663730,48.541256,35.078904,120,0,526.076804103,1746544178250,0.4905286,1.564308,10.4357,1746544178217,0.01572932,-0.03176406,0.005803049,1746544178175,-16.875,1.0375,-15.4125,1746544177945,1003.884,1746544176601,13,0,0,20.15504,-0.1708239,25.67483
1746544178092,1746544176053,48.536525,35.078854,10,4,3,16,-165.624024277,48.5373113535,35.078659011,7113309358,7697433732,1745036663730,48.541256,35.078904,120,0,526.076804103,1746544178250,0.4905286,1.564308,10.4357,1746544178251,0.007788302,-0.009009997,0.004581355,1746544178175,-16.875,1.0375,-15.4125,1746544177945,1003.884,1746544176601,13,0,0,20.15504,-0.1708239,25.67483
1746544178097,1746544176053,48.536525,35.078854,10,4,3,16,-165.624024277,48.5373113535,35.078659011,7113309358,7697433732,1745036663730,48.541256,35.078904,120,0,526.076804103,1746544178250,0.4905286,1.564308,10.4357,1746544178251,0.007788302,-0.009009997,0.004581355,1746544178258,-18.325,0.775,-15.35,1746544177945,1003.884,1746544176601,13,0,0,20.15504,-0.1708239,25.67483
1746544178128,1746544176053,48.536525,35.078854,10,4,3,16,-165.624024349,48.5372939303,35.0786522666,7113309358,7697433732,1745036663730,48.541256,35.078904,120,0,526.076804103,1746544178283,-0.06879365,2.223531,10.7348,1746544178251,0.007788302,-0.009009997,0.004581355,1746544178258,-18.325,0.775,-15.35,1746544177945,1003.884,1746544176601,13,0,0,20.14967,-0.144919,25.67483
1746544178133,1746544176053,48.536525,35.078854,10,4,3,16,-165.624024349,48.5372939303,35.0786522666,7113309358,7697433732,1745036663730,48.541256,35.078904,120,0,526.076804103,1746544178283,-0.06879365,2.223531,10.7348,1746544178282,-0.02275406,0.0387888,0.004581355,1746544178258,-18.325,0.775,-15.35,1746544177945,1003.884,1746544176601,13,0,0,20.14967,-0.144919,25.67483
1746544178152,1746544176053,48.536525,35.078854,10,4,3,16,-165.624024262,48.5372852187,35.0786488943,7113309358,7697433732,1745036663730,48.541256,35.078904,120,0,526.076804103,1746544178312,-0.2685944,1.545165,9.760324,1746544178282,-0.02275406,0.0387888,0.004581355,1746544178258,-18.325,0.775,-15.35,1746544177945,1003.884,1746544176601,13,0,0,20.14552,-0.1066162,25.67483
1746544178163,1746544176053,48.536525,35.078854,10,4,3,16,-165.624024246,48.5372852187,35.0786488943,7113309358,7697433732,1745036663730,48.541256,35.078904,120,0,526.076804103,1746544178312,-0.2685944,1.545165,9.760324,1746544178325,0.003206948,-0.01756186,-0.005192202,1746544178258,-18.325,0.775,-15.35,1746544177945,1003.884,1746544176601,13,0,0,20.14552,-0.1066162,25.67483
1746544178181,1746544176053,48.536525,35.078854,10,4,3,16,-165.624024246,48.5372765071,35.0786455221,7113309358,7697433732,1745036663730,48.541256,35.078904,120,0,526.076804103,1746544178312,-0.2685944,1.545165,9.760324,1746544178325,0.003206948,-0.01756186,-0.005192202,1746544178342,-17.4,1.9,-17,1746544177945,1003.884,1746544176601,13,0,0,20.14552,-0.1066162,25.67483
1746544178189,1746544176053,48.536525,35.078854,10,4,3,16,-165.624024247,48.5372677955,35.0786421499,7113309358,7697433732,1745036663730,48.541256,35.078904,120,0,526.076804103,1746544178351,-0.3990032,2.136791,9.22134,1746544178325,0.003206948,-0.01756186,-0.005192202,1746544178342,-17.4,1.9,-17,1746544177945,1003.884,1746544176601,13,0,0,20.14247,-0.1039673,25.67483
1746544178195,1746544176053,48.536525,35.078854,10,4,3,16,-165.624024247,48.5372677955,35.0786421499,7113309358,7697433732,1745036663730,48.541256,35.078904,120,0,526.076804103,1746544178351,-0.3990032,2.136791,9.22134,1746544178353,0.009315421,-0.01145339,-0.006413896,1746544178342,-17.4,1.9,-17,1746544177945,1003.884,1746544176601,13,0,0,20.14247,-0.1039673,25.67483
1746544178222,1746544176053,48.536525,35.078854,10,4,3,16,-165.624024247,48.5372590839,35.0786387776,7113309358,7697433732,1745036663730,48.541256,35.078904,120,0,526.076804103,1746544178384,0.1704886,2.298306,10.44228,1746544178353,0.009315421,-0.01145339,-0.006413896,1746544178342,-17.4,1.9,-17,1746544177945,1003.884,1746544176601,13,0,0,20.13818,-0.1162603,25.67483
1746544178227,1746544176053,48.536525,35.078854,10,4,3,16,-165.624024247,48.5372503723,35.0786354054,7113309358,7697433732,1745036663730,48.541256,35.078904,120,0,526.076804103,1746544178384,0.1704886,2.298306,10.44228,1746544178387,0.02046338,-0.01481305,-0.003817795,1746544178342,-17.4,1.9,-17,1746544177945,1003.884,1746544176601,13,0,0,20.13818,-0.1162603,25.67483
1746544178254,1746544176053,48.536525,35.078854,10,4,3,16,-165.624024247,48.5372416607,35.0786320332,7113309358,7697433732,1745036663730,48.541256,35.078904,120,0,526.076804103,1746544178384,0.1704886,2.298306,10.44228,1746544178415,0.02794626,-0.02076881,-0.002596101,1746544178342,-17.4,1.9,-17,1746544177945,1003.884,1746544176601,13,0,0,20.13818,-0.1162603,25.67483
1746544178261,1746544176053,48.536525,35.078854,10,4,3,16,-165.624024247,48.5372416607,35.0786320332,7113309358,7697433732,1745036663730,48.541256,35.078904,120,0,526.076804103,1746544178415,0.2350948,1.647458,10.67498,1746544178415,0.02794626,-0.02076881,-0.002596101,1746544178342,-17.4,1.9,-17,1746544177945,1003.884,1746544176601,13,0,0,20.13482,-0.08680095,25.67483
1746544178267,1746544176053,48.536525,35.078854,10,4,3,16,-165.624024247,48.5372329491,35.0786286609,7113309358,7697433732,1745036663730,48.541256,35.078904,120,0,526.076804103,1746544178415,0.2350948,1.647458,10.67498,1746544178415,0.02794626,-0.02076881,-0.002596101,1746544178423,-14.85,2.125,-16.775,1746544177945,1003.884,1746544176601,13,0,0,20.13482,-0.08680095,25.67483
1746544178295,1746544176053,48.536525,35.078854,10,4,3,16,-165.624024247,48.5372242375,35.0786252887,7113309358,7697433732,1745036663730,48.541256,35.078904,120,0,526.076804103,1746544178415,0.2350948,1.647458,10.67498,1746544178452,0.01771457,-0.008704574,0.007177455,1746544178423,-14.85,2.125,-16.775,1746544177945,1003.884,1746544176601,13,0,0,20.13482,-0.08680095,25.67483
1746544178303,1746544176053,48.536525,35.078854,10,4,3,16,-165.624024247,48.5372242375,35.0786252887,7113309358,7697433732,1745036663730,48.541256,35.078904,120,0,526.076804103,1746544178453,-0.1477568,2.089532,9.631111,1746544178452,0.01771457,-0.008704574,0.007177455,1746544178423,-14.85,2.125,-16.775,1746544177945,1003.884,1746544176601,13,0,0,20.13262,-0.05568346,25.67483
1746544178319,1746544176053,48.536525,35.078854,10,4,3,16,-165.624024247,48.5372155259,35.0786219165,7113309358,7697433732,1745036663730,48.541256,35.078904,120,0,526.076804103,1746544178453,-0.1477568,2.089532,9.631111,1746544178474,0.01847813,0.01893627,0.003665084,1746544178423,-14.85,2.125,-16.775,1746544177945,1003.884,1746544176601,13,0,0,20.13262,-0.05568346,25.67483
1746544178327,1746544176053,48.536525,35.078854,10,4,3,16,-165.624024247,48.5372155259,35.0786219165,7113309358,7697433732,1745036663730,48.541256,35.078904,120,0,526.076804103,1746544178453,-0.1477568,2.089532,9.631111,1746544178474,0.01847813,0.01893627,0.003665084,1746544178423,-14.85,2.125,-16.775,1746544178492,1003.88,1746544176601,13,0,0,20.13055,-0.05286159,25.67483
1746544178334,1746544176053,48.536525,35.078854,10,4,3,16,-165.624024247,48.5372068143,35.0786185443,7113309358,7697433732,1745036663730,48.541256,35.078904,120,0,526.076804103,1746544178491,-0.3589234,1.414158,9.583255,1746544178474,0.01847813,0.01893627,0.003665084,1746544178423,-14.85,2.125,-16.775,1746544178492,1003.88,1746544176601,13,0,0,20.12848,-0.0562956,25.67483
1746544178338,1746544176053,48.536525,35.078854,10,4,3,16,-165.624024247,48.5372068143,35.0786185443,7113309358,7697433732,1745036663730,48.541256,35.078904,120,0,526.076804103,1746544178491,-0.3589234,1.414158,9.583255,1746544178498,0.01725644,0.01175881,0.006108473,1746544178423,-14.85,2.125,-16.775,1746544178492,1003.88,1746544176601,13,0,0,20.12848,-0.0562956,25.67483
1746544178338,1746544176053,48.536525,35.078854,10,4,3,16,-165.624024247,48.5372068143,35.0786185443,7113309358,7697433732,1745036663730,48.541256,35.078904,120,0,526.076804103,1746544178491,-0.3589234,1.414158,9.583255,1746544178498,0.01725644,0.01175881,0.006108473,1746544178510,-15.8125,2.0375,-15.575,1746544178492,1003.88,1746544176601,13,0,0,20.12848,-0.0562956,25.67483
1746544178356,1746544176053,48.536525,35.078854,10,4,3,16,-165.624024247,48.5371981027,35.078615172,7113309358,7697433732,1745036663730,48.541256,35.078904,120,0,526.076804103,1746544178527,0.06460621,0.7489535,9.912866,1746544178498,0.01725644,0.01175881,0.006108473,1746544178510,-15.8125,2.0375,-15.575,1746544178492,1003.88,1746544176601,13,0,0,20.12842,-0.05622174,25.67483
1746544178364,1746544176053,48.536525,35.078854,10,4,3,16,-165.624024247,48.5371981027,35.078615172,7113309358,7697433732,1745036663730,48.541256,35.078904,120,0,526.076804103,1746544178527,0.06460621,0.7489535,9.912866,1746544178529,-0.0116061,0.03298575,0.005955761,1746544178510,-15.8125,2.0375,-15.575,1746544178492,1003.88,1746544176601,13,0,0,20.12842,-0.05622174,25.67483
1746544178390,1746544176053,48.536525,35.078854,10,4,3,16,-165.61511675,48.5371855887,35.0786103257,7697433732,7113309359,1745036663730,48.541256,35.078904,120,0,526.076804103,1746544178560,0.1926222,1.061815,9.535996,1746544178529,-0.0116061,0.03298575,0.005955761,1746544178510,-15.8125,2.0375,-15.575,1746544178492,1003.88,1746544176601,13,0,0,20.12653,-0.05223946,25.67483
1746544178396,1746544176053,48.536525,35.078854,10,4,3,16,-165.615116763,48.5371768775,35.0786069514,7697433732,7113309359,1745036663730,48.541256,35.078904,120,0,526.076804103,1746544178560,0.1926222,1.061815,9.535996,1746544178562,-0.01175881,-0.01664559,0.001985254,1746544178510,-15.8125,2.0375,-15.575,1746544178492,1003.88,1746544176601,13,0,0,20.12653,-0.05223946,25.67483
1746544178417,1746544176053,48.536525,35.078854,10,4,3,16,-165.615116735,48.5371681662,35.0786035772,7697433732,7113309359,1745036663730,48.541256,35.078904,120,0,526.076804103,1746544178560,0.1926222,1.061815,9.535996,1746544178562,-0.01175881,-0.01664559,0.001985254,1746544178588,-17.2125,0.875,-15.225,1746544178492,1003.88,1746544176601,13,0,0,20.12653,-0.05223946,25.67483
1746544178423,1746544176053,48.536525,35.078854,10,4,3,16,-165.615116735,48.5371681662,35.0786035772,7697433732,7113309359,1745036663730,48.541256,35.078904,120,0,526.076804103,1746544178594,0.09152547,1.314258,9.299107,1746544178562,-0.01175881,-0.01664559,0.001985254,1746544178588,-17.2125,0.875,-15.225,1746544178492,1003.88,1746544176601,13,0,0,20.12469,-0.05871268,25.67483
1746544178427,1746544176053,48.536525,35.078854,10,4,3,16,-165.615116774,48.5371594549,35.0786002029,7697433732,7113309359,1745036663730,48.541256,35.078904,120,0,526.076804103,1746544178594,0.09152547,1.314258,9.299107,1746544178595,-0.02504474,-0.03741439,0.00167983,1746544178588,-17.2125,0.875,-15.225,1746544178492,1003.88,1746544176601,13,0,0,20.12469,-0.05871268,25.67483
1746544178454,1746544176053,48.536525,35.078854,10,4,3,16,-165.615116699,48.5371507437,35.0785968286,7697433732,7113309359,1745036663730,48.541256,35.078904,120,0,526.076804103,1746544178624,0.1058824,0.9529416,10.51885,1746544178595,-0.02504474,-0.03741439,0.00167983,1746544178588,-17.2125,0.875,-15.225,1746544178492,1003.88,1746544176601,13,0,0,20.12248,-0.07162922,25.67483
1746544178466,1746544176053,48.536525,35.078854,10,4,3,16,-165.615116763,48.5371420324,35.0785934543,7697433732,7113309359,1745036663730,48.541256,35.078904,120,0,526.076804103,1746544178624,0.1058824,0.9529416,10.51885,1746544178625,-0.03191677,0.008246438,-0.004275931,1746544178588,-17.2125,0.875,-15.225,1746544178492,1003.88,1746544176601,13,0,0,20.12248,-0.07162922,25.67483
1746544178492,1746544176053,48.536525,35.078854,10,4,3,16,-165.615116743,48.5371246099,35.0785867058,7697433732,7113309359,1745036663730,48.541256,35.078904,120,0,526.076804103,1746544178662,0.3696911,0.512064,9.349955,1746544178625,-0.03191677,0.008246438,-0.004275931,1746544178588,-17.2125,0.875,-15.225,1746544178492,1003.88,1746544176601,13,0,0,20.12066,-0.04954123,25.67483
1746544178500,1746544176053,48.536525,35.078854,10,4,3,16,-165.615116743,48.5371246099,35.0785867058,7697433732,7113309359,1745036663730,48.541256,35.078904,120,0,526.076804103,1746544178662,0.3696911,0.512064,9.349955,1746544178662,-0.01068983,-0.002290677,-0.009009997,1746544178588,-17.2125,0.875,-15.225,1746544178492,1003.88,1746544176601,13,0,0,20.12066,-0.04954123,25.67483
1746544178506,1746544176053,48.536525,35.078854,10,4,3,16,-165.615116752,48.5371158986,35.0785833315,7697433732,7113309359,1745036663730,48.541256,35.078904,120,0,526.076804103,1746544178662,0.3696911,0.512064,9.349955,1746544178662,-0.01068983,-0.002290677,-0.009009997,1746544178666,-19.3,1.85,-15.7625,1746544178492,1003.88,1746544176601,13,0,0,20.12066,-0.04954123,25.67483
1746544178533,1746544176053,48.536525,35.078854,10,4,3,16,-165.615116728,48.5371071874,35.0785799573,7697433732,7113309359,1745036663730,48.541256,35.078904,120,0,526.076804103,1746544178699,0.08255238,0.9565309,10.12702,1746544178662,-0.01068983,-0.002290677,-0.009009997,1746544178666,-19.3,1.85,-15.7625,1746544178492,1003.88,1746544176601,13,0,0,20.11845,-0.06665143,25.67483
1746544178538,1746544176053,48.536525,35.078854,10,4,3,16,-165.615116725,48.5370984761,35.078576583,7697433732,7113309359,1745036663730,48.541256,35.078904,120,0,526.076804103,1746544178699,0.08255238,0.9565309,10.12702,1746544178699,-0.01969982,0.009773556,-0.00167983,1746544178666,-19.3,1.85,-15.7625,1746544178492,1003.88,1746544176601,13,0,0,20.11845,-0.06665143,25.67483
1746544178556,1746544176053,48.536525,35.078854,10,4,3,16,-165.615116725,48.5370897648,35.0785732087,7697433732,7113309359,1745036663730,48.541256,35.078904,120,0,526.076804103,1746544178724,-0.229711,1.087538,10.63729,1746544178699,-0.01969982,0.009773556,-0.00167983,1746544178666,-19.3,1.85,-15.7625,1746544178492,1003.88,1746544176601,13,0,0,20.11624,-0.05306897,25.67483
1746544178567,1746544176053,48.536525,35.078854,10,4,3,16,-165.615116725,48.5370897648,35.0785732087,7697433732,7113309359,1745036663730,48.541256,35.078904,120,0,526.076804103,1746544178724,-0.229711,1.087538,10.63729,1746544178736,-0.01725644,0.009773556,0.0007635591,1746544178666,-19.3,1.85,-15.7625,1746544178492,1003.88,1746544176601,13,0,0,20.11624,-0.05306897,25.67483
1746544178585,1746544176053,48.536525,35.078854,10,4,3,16,-165.615116725,48.5370723423,35.0785664602,7697433732,7113309359,1745036663730,48.541256,35.078904,120,0,526.076804103,1746544178724,-0.229711,1.087538,10.63729,1746544178736,-0.01725644,0.009773556,0.0007635591,1746544178757,-16.6,2.1125,-17.2125,1746544178492,1003.88,1746544176601,13,0,0,20.11624,-0.05306897,25.67483
1746544178593,1746544176053,48.536525,35.078854,10,4,3,16,-165.615116725,48.5370723423,35.0785664602,7697433732,7113309359,1745036663730,48.541256,35.078904,120,0,526.076804103,1746544178763,0.07118648,0.3445665,9.546764,1746544178736,-0.01725644,0.009773556,0.0007635591,1746544178757,-16.6,2.1125,-17.2125,1746544178492,1003.88,1746544176601,13,0,0,20.11519,-0.03121189,25.67483
1746544178597,1746544176053,48.536525,35.078854,10,4,3,16,-165.615116725,48.5370723423,35.0785664602,7697433732,7113309359,1745036663730,48.541256,35.078904,120,0,526.076804103,1746544178763,0.07118648,0.3445665,9.546764,1746544178765,-0.02962609,0.0155766,-0.004123219,1746544178757,-16.6,2.1125,-17.2125,1746544178492,1003.88,1746544176601,13,0,0,20.11519,-0.03121189,25.67483
1746544178629,1746544176053,48.536525,35.078854,10,4,3,16,-165.615116725,48.5370549198,35.0785597117,7697433732,7113309359,1745036663730,48.541256,35.078904,120,0,526.076804103,1746544178796,-0.2380859,1.025923,9.500702,1746544178765,-0.02962609,0.0155766,-0.004123219,1746544178757,-16.6,2.1125,-17.2125,1746544178492,1003.88,1746544176601,13,0,0,20.11376,-0.04209513,25.67483
1746544178635,1746544176053,48.536525,35.078854,10,4,3,16,-165.615116725,48.5370462086,35.0785563374,7697433732,7113309359,1745036663730,48.541256,35.078904,120,0,526.076804103,1746544178796,-0.2380859,1.025923,9.500702,1746544178798,-0.02336491,0.008399149,-0.005344913,1746544178757,-16.6,2.1125,-17.2125,1746544178492,1003.88,1746544176601,13,0,0,20.11376,-0.04209513,25.67483
1746544178663,1746544176053,48.536525,35.078854,10,4,3,16,-165.615116725,48.5370374973,35.0785529631,7697433732,7113309359,1745036663730,48.541256,35.078904,120,0,526.076804103,1746544178831,0.02871387,0.4779663,9.345169,1746544178798,-0.02336491,0.008399149,-0.005344913,1746544178757,-16.6,2.1125,-17.2125,1746544178492,1003.88,1746544176601,13,0,0,20.11224,-0.04956184,25.67483
1746544178666,1746544176053,48.536525,35.078854,10,4,3,16,-165.615116725,48.5370287861,35.0785495889,7697433732,7113309359,1745036663730,48.541256,35.078904,120,0,526.076804103,1746544178831,0.02871387,0.4779663,9.345169,1746544178798,-0.02336491,0.008399149,-0.005344913,1746544178835,-15.025,1.975,-15.6125,1746544178492,1003.88,1746544176601,13,0,0,20.11224,-0.04956184,25.67483
1746544178669,1746544176053,48.536525,35.078854,10,4,3,16,-165.615116725,48.5370287861,35.0785495889,7697433732,7113309359,1745036663730,48.541256,35.078904,120,0,526.076804103,1746544178831,0.02871387,0.4779663,9.345169,1746544178832,-0.03038965,-0.009773556,-0.003054236,1746544178835,-15.025,1.975,-15.6125,1746544178492,1003.88,1746544176601,13,0,0,20.11224,-0.04956184,25.67483
1746544178697,1746544176053,48.536525,35.078854,10,4,3,16,-165.615116725,48.5370113636,35.0785428404,7697433732,7113309359,1745036663730,48.541256,35.078904,120,0,526.076804103,1746544178866,-0.2422733,0.08733802,10.31725,1746544178832,-0.03038965,-0.009773556,-0.003054236,1746544178835,-15.025,1.975,-15.6125,1746544178492,1003.88,1746544176601,13,0,0,20.11023,-0.06545053,25.67483
1746544178701,1746544176053,48.536525,35.078854,10,4,3,16,-165.615116725,48.5370113636,35.0785428404,7697433732,7113309359,1745036663730,48.541256,35.078904,120,0,526.076804103,1746544178866,-0.2422733,0.08733802,10.31725,1746544178866,-0.02779355,-0.01695101,-0.003054236,1746544178835,-15.025,1.975,-15.6125,1746544178492,1003.88,1746544176601,13,0,0,20.11023,-0.06545053,25.67483
1746544178728,1746544176053,48.536525,35.078854,10,4,3,16,-165.615116725,48.5369999,35.0785384,7113309359,7113309360,1745036663730,48.541256,35.078904,120,0,526.076804103,1746544178897,-0.1136591,0.7519445,10.14916,1746544178866,-0.02779355,-0.01695101,-0.003054236,1746544178835,-15.025,1.975,-15.6125,1746544178492,1003.88,1746544176601,13,0,0,20.1082,-0.05059447,25.67483
1746544178732,1746544176053,48.536525,35.078854,10,4,3,16,-164.640469766,48.5369999,35.0785384,7113309359,7113309360,1745036663730,48.541256,35.078904,120,0,526.076804103,1746544178897,-0.1136591,0.7519445,10.14916,1746544178898,-0.02260135,-0.0361927,-0.0007635591,1746544178835,-15.025,1.975,-15.6125,1746544178492,1003.88,1746544176601,13,0,0,20.1082,-0.05059447,25.67483
1746544178745,1746544176053,48.536525,35.078854,10,4,3,16,-164.640469794,48.536982556,35.0785312049,7113309359,7113309360,1745036663730,48.541256,35.078904,120,0,526.076804103,1746544178897,-0.1136591,0.7519445,10.14916,1746544178898,-0.02260135,-0.0361927,-0.0007635591,1746544178915,-15.975,1.8875,-14.75,1746544178492,1003.88,1746544176601,13,0,0,20.1082,-0.05059447,25.67483
1746544178761,1746544176053,48.536525,35.078854,10,4,3,16,-164.640469816,48.536973884,35.0785276073,7113309359,7113309360,1745036663730,48.541256,35.078904,120,0,526.076804103,1746544178897,-0.1136591,0.7519445,10.14916,1746544178931,-0.02367033,-0.03863609,-0.001985254,1746544178915,-15.975,1.8875,-14.75,1746544178492,1003.88,1746544176601,13,0,0,20.1082,-0.05059447,25.67483
1746544178765,1746544176053,48.536525,35.078854,10,4,3,16,-164.640469813,48.536973884,35.0785276073,7113309359,7113309360,1745036663730,48.541256,35.078904,120,0,526.076804103,1746544178931,-0.1770689,-0.1627119,9.975677,1746544178931,-0.02367033,-0.03863609,-0.001985254,1746544178915,-15.975,1.8875,-14.75,1746544178492,1003.88,1746544176601,13,0,0,20.10681,-0.03934571,25.67483
1746544178790,1746544176053,48.536525,35.078854,10,4,3,16,-164.640469852,48.5369478679,35.0785168146,7113309359,7113309360,1745036663730,48.541256,35.078904,120,0,526.076804103,1746544178931,-0.1770689,-0.1627119,9.975677,1746544178959,-0.02428118,-0.009620844,-0.001832542,1746544178915,-15.975,1.8875,-14.75,1746544178492,1003.88,1746544176601,13,0,0,20.10681,-0.03934571,25.67483
1746544178794,1746544176053,48.536525,35.078854,10,4,3,16,-164.640469852,48.5369478679,35.0785168146,7113309359,7113309360,1745036663730,48.541256,35.078904,120,0,526.076804103,1746544178960,-0.4743771,0.2524428,10.40818,1746544178959,-0.02428118,-0.009620844,-0.001832542,1746544178915,-15.975,1.8875,-14.75,1746544178492,1003.88,1746544176601,13,0,0,20.10551,-0.03707531,25.67483
1746544178821,1746544176053,48.536525,35.078854,10,4,3,16,-164.640469867,48.5369305239,35.0785096195,7113309359,7113309360,1745036663730,48.541256,35.078904,120,0,526.076804103,1746544178991,-0.0526421,0.2817549,10.06601,1746544178959,-0.02428118,-0.009620844,-0.001832542,1746544178915,-15.975,1.8875,-14.75,1746544178492,1003.88,1746544176601,13,0,0,20.10466,-0.02130456,25.67483
1746544178828,1746544176053,48.536525,35.078854,10,4,3,16,-164.640469867,48.5369218519,35.0785060219,7113309359,7113309360,1745036663730,48.541256,35.078904,120,0,526.076804103,1746544178991,-0.0526421,0.2817549,10.06601,1746544178993,-0.01145339,-0.02870982,-0.003054236,1746544178915,-15.975,1.8875,-14.75,1746544178492,1003.88,1746544176601,13,0,0,20.10466,-0.02130456,25.67483
1746544178831,1746544176053,48.536525,35.078854,10,4,3,16,-164.640469867,48.5369218519,35.0785060219,7113309359,7113309360,1745036663730,48.541256,35.078904,120,0,526.076804103,1746544178991,-0.0526421,0.2817549,10.06601,1746544178993,-0.01145339,-0.02870982,-0.003054236,1746544178995,-17.875,1.85,-15.1625,1746544178492,1003.88,1746544176601,13,0,0,20.10466,-0.02130456,25.67483
1746544178857,1746544176053,48.536525,35.078854,10,4,3,16,-164.640469787,48.5368958359,35.0784952292,7113309359,7113309360,1745036663730,48.541256,35.078904,120,0,526.076804103,1746544179023,-0.4522435,-0.07477571,10.23829,1746544178993,-0.01145339,-0.02870982,-0.003054236,1746544178995,-17.875,1.85,-15.1625,1746544178492,1003.88,1746544176601,13,0,0,20.10411,-0.01437879,25.67483
1746544178862,1746544176053,48.536525,35.078854,10,4,3,16,-164.640469787,48.5368958359,35.0784952292,7113309359,7113309360,1745036663730,48.541256,35.078904,120,0,526.076804103,1746544179023,-0.4522435,-0.07477571,10.23829,1746544179025,0.0006108473,-0.0116061,-0.005192202,1746544178995,-17.875,1.85,-15.1625,1746544178492,1003.88,1746544176601,13,0,0,20.10411,-0.01437879,25.67483
1746544178871,1746544176053,48.536525,35.078854,10,4,3,16,-164.640469826,48.5368871639,35.0784916317,7113309359,7113309360,1745036663730,48.541256,35.078904,120,0,526.076804103,1746544179023,-0.4522435,-0.07477571,10.23829,1746544179025,0.0006108473,-0.0116061,-0.005192202,1746544178995,-17.875,1.85,-15.1625,1746544179044,1003.89,1746544176601,13,0,0,20.10382,-0.00336796,25.67483
1746544178891,1746544176053,48.536525,35.078854,10,4,3,16,-164.64046985,48.5368698199,35.0784844366,7113309359,7113309360,1745036663730,48.541256,35.078904,120,0,526.076804103,1746544179062,0.0101695,-0.2321038,9.845269,1746544179025,0.0006108473,-0.0116061,-0.005192202,1746544178995,-17.875,1.85,-15.1625,1746544179044,1003.89,1746544176601,13,0,0,20.10374,-0.004813361,25.67483
1746544178897,1746544176053,48.536525,35.078854,10,4,3,16,-164.64046985,48.5368698199,35.0784844366,7113309359,7113309360,1745036663730,48.541256,35.078904,120,0,526.076804103,1746544179062,0.0101695,-0.2321038,9.845269,1746544179064,-0.003970507,-0.03344389,-0.0006108473,1746544178995,-17.875,1.85,-15.1625,1746544179044,1003.89,1746544176601,13,0,0,20.10374,-0.004813361,25.67483
1746544178909,1746544176053,48.536525,35.078854,10,4,3,16,-164.640469756,48.536861148,35.078480839,7113309359,7113309360,1745036663730,48.541256,35.078904,120,0,526.076804103,1746544179062,0.0101695,-0.2321038,9.845269,1746544179064,-0.003970507,-0.03344389,-0.0006108473,1746544179081,-17.35,2.275,-15.5,1746544179044,1003.89,1746544176601,13,0,0,20.10374,-0.004813361,25.67483
1746544178917,1746544176053,48.536525,35.078854,10,4,3,16,-164.640469756,48.536852476,35.0784772415,7113309359,7113309360,1745036663730,48.541256,35.078904,120,0,526.076804103,1746544179083,0.212363,-0.1238286,9.479765,1746544179064,-0.003970507,-0.03344389,-0.0006108473,1746544179081,-17.35,2.275,-15.5,1746544179044,1003.89,1746544176601,13,0,0,20.10364,-0.006135824,25.67483
1746544178925,1746544179050,48.536505,35.078984,10,4,4.79999995232,16,-164.640469756,48.536843804,35.0784736439,7113309359,7113309360,1745036663730,48.541256,35.078904,120,0,528.320658352,1746544179083,0.212363,-0.1238286,9.479765,1746544179064,-0.003970507,-0.03344389,-0.0006108473,1746544179081,-17.35,2.275,-15.5,1746544179044,1003.89,1746544176601,13,0,0,20.10364,-0.006135824,25.67483
1746544178934,1746544179050,48.536505,35.078984,10,4,4.79999995232,16,-164.640469756,48.536835132,35.0784700464,7113309359,7113309360,1745036663730,48.541256,35.078904,120,0,528.320658352,1746544179083,0.212363,-0.1238286,9.479765,1746544179097,-0.007788302,-0.03115321,-0.003054236,1746544179081,-17.35,2.275,-15.5,1746544179044,1003.89,1746544176601,13,0,0,20.10364,-0.006135824,25.67483
1746544178960,1746544179050,48.536505,35.078984,10,4,4.79999995232,16,-164.640469756,48.536817788,35.0784628513,7113309359,7113309360,1745036663730,48.541256,35.078904,120,0,528.320658352,1746544179131,-0.1579263,0.09690931,9.969695,1746544179097,-0.007788302,-0.03115321,-0.003054236,1746544179081,-17.35,2.275,-15.5,1746544179044,1003.89,1746544176601,13,0,0,20.10342,-0.01467952,25.67483
1746544178963,1746544179050,48.536505,35.078984,10,4,4.79999995232,16,-164.640469756,48.536817788,35.0784628513,7113309359,7113309360,1745036663730,48.541256,35.078904,120,0,528.320658352,1746544179131,-0.1579263,0.09690931,9.969695,1746544179133,-0.02305948,-0.008399149,0.001832542,1746544179081,-17.35,2.275,-15.5,1746544179044,1003.89,1746544176601,13,0,0,20.10342,-0.01467952,25.67483
1746544178985,1746544179050,48.536505,35.078984,10,4,4.79999995232,16,-164.640469756,48.5368004441,35.0784556562,7113309359,7113309360,1745036663730,48.541256,35.078904,120,0,528.320658352,1746544179131,-0.1579263,0.09690931,9.969695,1746544179133,-0.02305948,-0.008399149,0.001832542,1746544179156,-14.6625,2.4125,-16.2875,1746544179044,1003.89,1746544176601,13,0,0,20.10342,-0.01467952,25.67483
1746544179006,1746544179050,48.536505,35.078984,10,4,4.79999995232,16,-164.640469756,48.5367831001,35.0784484611,7113309359,7113309360,1745036663730,48.541256,35.078904,120,0,528.320658352,1746544179159,-0.02213361,0.165703,9.641879,1746544179133,-0.02305948,-0.008399149,0.001832542,1746544179156,-14.6625,2.4125,-16.2875,1746544179044,1003.89,1746544176601,13,0,0,20.10288,-0.007956794,25.67483
1746544179009,1746544179050,48.536505,35.078984,10,4,4.79999995232,16,-164.640469756,48.5367831001,35.0784484611,7113309359,7113309360,1745036663730,48.541256,35.078904,120,0,528.320658352,1746544179159,-0.02213361,0.165703,9.641879,1746544179160,-0.003817795,0.01847813,-0.0001527118,1746544179156,-14.6625,2.4125,-16.2875,1746544179044,1003.89,1746544176601,13,0,0,20.10288,-0.007956794,25.67483
1746544179036,1746544179050,48.536505,35.078984,10,4,4.79999995232,16,-164.640469756,48.5367570842,35.0784376685,7113309359,7113309360,1745036663730,48.541256,35.078904,120,0,528.320658352,1746544179206,0.6861419,-0.1465604,9.190832,1746544179160,-0.003817795,0.01847813,-0.0001527118,1746544179156,-14.6625,2.4125,-16.2875,1746544179044,1003.89,1746544176601,13,0,0,20.10259,-0.01329264,25.67483
1746544179040,1746544179050,48.536505,35.078984,10,4,4.79999995232,16,-164.640469756,48.5367570842,35.0784376685,7113309359,7113309360,1745036663730,48.541256,35.078904,120,0,528.320658352,1746544179206,0.6861419,-0.1465604,9.190832,1746544179206,-0.01175881,-0.01313322,-0.002901525,1746544179156,-14.6625,2.4125,-16.2875,1746544179044,1003.89,1746544176601,13,0,0,20.10259,-0.01329264,25.67483
1746544179064,1746544179050,48.536505,35.078984,10,4,4.79999995232,16,-164.640469756,48.5367397402,35.0784304734,7113309359,7113309360,1745036663730,48.541256,35.078904,120,0,528.320658352,1746544179234,0.1764707,-0.02931208,9.201599,1746544179206,-0.01175881,-0.01313322,-0.002901525,1746544179156,-14.6625,2.4125,-16.2875,1746544179044,1003.89,1746544176601,13,0,0,20.10129,-0.04192121,25.67483
1746544179069,1746544179050,48.536505,35.078984,10,4,4.79999995232,16,-164.640469756,48.5367310683,35.0784268759,7113309359,7113309360,1745036663730,48.541256,35.078904,120,0,528.320658352,1746544179234,0.1764707,-0.02931208,9.201599,1746544179238,-0.002596101,-0.03817795,-0.004275931,1746544179156,-14.6625,2.4125,-16.2875,1746544179044,1003.89,1746544176601,13,0,0,20.10129,-0.04192121,25.67483
1746544179083,1746544179050,48.536505,35.078984,10,4,4.79999995232,16,-164.640469756,48.5367251,35.0784244,7113309360,7113309361,1745036663730,48.541256,35.078904,120,0,528.320658352,1746544179234,0.1764707,-0.02931208,9.201599,1746544179238,-0.002596101,-0.03817795,-0.004275931,1746544179252,-13.8375,2.6125,-15.975,1746544179044,1003.89,1746544176601,13,0,0,20.10129,-0.04192121,25.67483
1746544179094,1746544179050,48.536505,35.078984,10,4,4.79999995232,16,-174.038126743,48.5367161554,35.0784229893,7113309360,7113309361,1745036663730,48.541256,35.078904,120,0,528.320658352,1746544179234,0.1764707,-0.02931208,9.201599,1746544179262,0.01114796,0.02000525,-0,1746544179252,-13.8375,2.6125,-15.975,1746544179044,1003.89,1746544176601,13,0,0,20.10129,-0.04192121,25.67483
1746544179099,1746544179050,48.536505,35.078984,10,4,4.79999995232,16,-174.038126743,48.5367161554,35.0784229893,7113309360,7113309361,1745036663730,48.541256,35.078904,120,0,528.320658352,1746544179263,-0.4175476,-0.101695,9.040084,1746544179262,0.01114796,0.02000525,-0,1746544179252,-13.8375,2.6125,-15.975,1746544179044,1003.89,1746544176601,13,0,0,20.09986,-0.05970981,25.67483
1746544179126,1746544179050,48.536505,35.078984,10,4,4.79999995232,16,-174.038126743,48.5367161554,35.0784229893,7113309360,7113309361,1745036663730,48.541256,35.078904,120,0,528.320658352,1746544179263,-0.4175476,-0.101695,9.040084,1746544179296,-0.008704574,0.0219905,-0.003970507,1746544179252,-13.8375,2.6125,-15.975,1746544179044,1003.89,1746544176601,13,0,0,20.09986,-0.05970981,25.67483
1746544179131,1746544179050,48.536505,35.078984,10,4,4.79999995232,16,-174.038126743,48.5367161554,35.0784229893,7113309360,7113309361,1745036663730,48.541256,35.078904,120,0,528.320658352,1746544179297,-0.1698904,0.1776671,9.725029,1746544179296,-0.008704574,0.0219905,-0.003970507,1746544179252,-13.8375,2.6125,-15.975,1746544179044,1003.89,1746544176601,13,0,0,20.0978,-0.0828302,25.67483
1746544179160,1746544179050,48.536505,35.078984,10,4,4.79999995232,16,-174.038126743,48.5367161554,35.0784229893,7113309360,7113309361,1745036663730,48.541256,35.078904,120,0,528.320658352,1746544179297,-0.1698904,0.1776671,9.725029,1746544179329,0.0003054236,0.005192202,-0.007635591,1746544179252,-13.8375,2.6125,-15.975,1746544179044,1003.89,1746544176601,13,0,0,20.0978,-0.0828302,25.67483
1746544179163,1746544179050,48.536505,35.078984,10,4,4.79999995232,16,-174.038126743,48.5367161554,35.0784229893,7113309360,7113309361,1745036663730,48.541256,35.078904,120,0,528.320658352,1746544179329,-0.09810573,0.1130609,10.10429,1746544179329,0.0003054236,0.005192202,-0.007635591,1746544179252,-13.8375,2.6125,-15.975,1746544179044,1003.89,1746544176601,13,0,0,20.09493,-0.08572773,25.67483
1746544179242,1746544179050,48.536505,35.078984,10,4,4.79999995232,16,-174.038126799,48.5367072109,35.0784215786,7113309360,7113309361,1745036663730,48.541256,35.078904,120,0,528.320658352,1746544179329,-0.09810573,0.1130609,10.10429,1746544179329,0.0003054236,0.005192202,-0.007635591,1746544179333,-16.1875,1.4875,-14.5875,1746544179044,1003.89,1746544176601,13,0,0,20.09493,-0.08572773,25.67483
1746544179259,1746544179050,48.536505,35.078984,10,4,4.79999995232,16,-174.038126799,48.5367072109,35.0784215786,7113309360,7113309361,1745036663730,48.541256,35.078904,120,0,528.320658352,1746544179429,-0.3708875,1.098306,10.16232,1746544179329,0.0003054236,0.005192202,-0.007635591,1746544179333,-16.1875,1.4875,-14.5875,1746544179044,1003.89,1746544176601,13,0,0,20.09233,-0.07700356,25.67483
1746544179268,1746544179050,48.536505,35.078984,10,4,4.79999995232,16,-174.038126799,48.5367072109,35.0784215786,7113309360,7113309361,1745036663730,48.541256,35.078904,120,0,528.320658352,1746544179429,-0.3708875,1.098306,10.16232,1746544179438,-0.05268558,-0.00671932,-0.006872032,1746544179333,-16.1875,1.4875,-14.5875,1746544179044,1003.89,1746544176601,13,0,0,20.09233,-0.07700356,25.67483
1746544179294,1746544179050,48.536505,35.078984,10,4,4.79999995232,16,-174.038126799,48.5367072109,35.0784215786,7113309360,7113309361,1745036663730,48.541256,35.078904,120,0,528.320658352,1746544179465,-0.3852445,1.074976,10.6014,1746544179438,-0.05268558,-0.00671932,-0.006872032,1746544179333,-16.1875,1.4875,-14.5875,1746544179044,1003.89,1746544176601,13,0,0,20.08919,-0.05524954,25.67483
1746544179297,1746544179050,48.536505,35.078984,10,4,4.79999995232,16,-174.038126799,48.5367072109,35.0784215786,7113309360,7113309361,1745036663730,48.541256,35.078904,120,0,528.320658352,1746544179465,-0.3852445,1.074976,10.6014,1746544179467,-0.007788302,-0.02519745,-0.009009997,1746544179333,-16.1875,1.4875,-14.5875,1746544179044,1003.89,1746544176601,13,0,0,20.08919,-0.05524954,25.67483
1746544179317,1746544179050,48.536505,35.078984,10,4,4.79999995232,16,-174.038126799,48.5366982663,35.0784201678,7113309360,7113309361,1745036663730,48.541256,35.078904,120,0,528.320658352,1746544179465,-0.3852445,1.074976,10.6014,1746544179467,-0.007788302,-0.02519745,-0.009009997,1746544179489,-15.1,2.7625,-16.7375,1746544179044,1003.89,1746544176601,13,0,0,20.08919,-0.05524954,25.67483
1746544179323,1746544179050,48.536505,35.078984,10,4,4.79999995232,16,-174.038126799,48.5366982663,35.0784201678,7113309360,7113309361,1745036663730,48.541256,35.078904,120,0,528.320658352,1746544179492,0.1812563,0.3762714,9.811171,1746544179467,-0.007788302,-0.02519745,-0.009009997,1746544179489,-15.1,2.7625,-16.7375,1746544179044,1003.89,1746544176601,13,0,0,20.08776,-0.02396438,25.67483
1746544179326,1746544179050,48.536505,35.078984,10,4,4.79999995232,16,-174.038126799,48.5366982663,35.0784201678,7113309360,7113309361,1745036663730,48.541256,35.078904,120,0,528.320658352,1746544179492,0.1812563,0.3762714,9.811171,1746544179495,0.0426066,-0.008399149,-0.001221695,1746544179489,-15.1,2.7625,-16.7375,1746544179044,1003.89,1746544176601,13,0,0,20.08776,-0.02396438,25.67483
1746544179353,1746544179050,48.536505,35.078984,10,4,4.79999995232,16,-174.038126799,48.5366982663,35.0784201678,7113309360,7113309361,1745036663730,48.541256,35.078904,120,0,528.320658352,1746544179492,0.1812563,0.3762714,9.811171,1746544179523,-0.01084254,0.006261184,-0.007635591,1746544179489,-15.1,2.7625,-16.7375,1746544179044,1003.89,1746544176601,13,0,0,20.08776,-0.02396438,25.67483
1746544179358,1746544179050,48.536505,35.078984,10,4,4.79999995232,16,-174.038126799,48.5366982663,35.0784201678,7113309360,7113309361,1745036663730,48.541256,35.078904,120,0,528.320658352,1746544179524,0.9002995,0.5359923,9.749556,1746544179523,-0.01084254,0.006261184,-0.007635591,1746544179489,-15.1,2.7625,-16.7375,1746544179044,1003.89,1746544176601,13,0,0,20.08712,-0.02354703,25.67483
1746544179385,1746544179050,48.536505,35.078984,10,4,4.79999995232,16,-174.038126799,48.5366982663,35.0784201678,7113309360,7113309361,1745036663730,48.541256,35.078904,120,0,528.320658352,1746544179554,0.4085745,0.2159522,9.657433,1746544179523,-0.01084254,0.006261184,-0.007635591,1746544179489,-15.1,2.7625,-16.7375,1746544179044,1003.89,1746544176601,13,0,0,20.08636,-0.02396002,25.67483
1746544179392,1746544179050,48.536505,35.078984,10,4,4.79999995232,16,-174.038126799,48.5366982663,35.0784201678,7113309360,7113309361,1745036663730,48.541256,35.078904,120,0,528.320658352,1746544179554,0.4085745,0.2159522,9.657433,1746544179556,0.0006108473,-0.01282779,-0.003970507,1746544179489,-15.1,2.7625,-16.7375,1746544179044,1003.89,1746544176601,13,0,0,20.08636,-0.02396002,25.67483
1746544179397,1746544179050,48.536505,35.078984,10,4,4.79999995232,16,-174.038126799,48.5366982663,35.0784201678,7113309360,7113309361,1745036663730,48.541256,35.078904,120,0,528.320658352,1746544179554,0.4085745,0.2159522,9.657433,1746544179556,0.0006108473,-0.01282779,-0.003970507,1746544179563,-14.275,2.975,-16.6125,1746544179044,1003.89,1746544176601,13,0,0,20.08636,-0.02396002,25.67483
1746544179420,1746544179050,48.536505,35.078984,10,4,4.79999995232,16,-174.038126799,48.5366953,35.0784197,7113309361,7113309362,1745036663730,48.541256,35.078904,120,0,528.320658352,1746544179590,0.07178468,0.4259224,9.393623,1746544179556,0.0006108473,-0.01282779,-0.003970507,1746544179563,-14.275,2.975,-16.6125,1746544179044,1003.89,1746544176601,13,0,0,20.08558,-0.02823813,25.67483
1746544179423,1746544179050,48.536505,35.078984,10,4,4.79999995232,16,-174.038126799,48.5366953,35.0784197,7113309361,7113309362,1745036663730,48.541256,35.078904,120,0,528.320658352,1746544179590,0.07178468,0.4259224,9.393623,1746544179556,0.0006108473,-0.01282779,-0.003970507,1746544179563,-14.275,2.975,-16.6125,1746544179592,1003.908,1746544176601,13,0,0,20.08433,-0.04115713,25.67483
1746544179430,1746544179050,48.536505,35.078984,10,4,4.79999995232,16,-174.038126799,48.5366953,35.0784197,7113309361,7113309362,1745036663730,48.541256,35.078904,120,0,528.320658352,1746544179590,0.07178468,0.4259224,9.393623,1746544179591,0.02504474,0.004428643,-0.004886778,1746544179563,-14.275,2.975,-16.6125,1746544179592,1003.908,1746544176601,13,0,0,20.08433,-0.04115713,25.67483
1746544179455,1746544179050,48.536505,35.078984,10,4,4.79999995232,16,-177.243013119,48.5366863172,35.0784190467,7113309361,7113309362,1745036663730,48.541256,35.078904,120,0,528.320658352,1746544179625,-0.4061816,0.8614162,9.919446,1746544179591,0.02504474,0.004428643,-0.004886778,1746544179563,-14.275,2.975,-16.6125,1746544179592,1003.908,1746544176601,13,0,0,20.08425,-0.04088383,25.67483
1746544179463,1746544179050,48.536505,35.078984,10,4,4.79999995232,16,-177.243013119,48.5366863172,35.0784190467,7113309361,7113309362,1745036663730,48.541256,35.078904,120,0,528.320658352,1746544179625,-0.4061816,0.8614162,9.919446,1746544179628,0.0297788,0.01053711,-0.008399149,1746544179563,-14.275,2.975,-16.6125,1746544179592,1003.908,1746544176601,13,0,0,20.08425,-0.04088383,25.67483
1746544179473,1746544179050,48.536505,35.078984,10,4,4.79999995232,16,-177.243013119,48.5366863172,35.0784190467,7113309361,7113309362,1745036663730,48.541256,35.078904,120,0,528.320658352,1746544179625,-0.4061816,0.8614162,9.919446,1746544179628,0.0297788,0.01053711,-0.008399149,1746544179644,-13.9,2.0875,-15.5,1746544179592,1003.908,1746544176601,13,0,0,20.08425,-0.04088383,25.67483
1746544179491,1746544179050,48.536505,35.078984,10,4,4.79999995232,16,-177.243013119,48.5366863172,35.0784190467,7113309361,7113309362,1745036663730,48.541256,35.078904,120,0,528.320658352,1746544179660,0.1734796,0.8991031,9.722636,1746544179628,0.0297788,0.01053711,-0.008399149,1746544179644,-13.9,2.0875,-15.5,1746544179592,1003.908,1746544176601,13,0,0,20.083,-0.03465012,25.67483
1746544179499,1746544179050,48.536505,35.078984,10,4,4.79999995232,16,-177.243013119,48.5366863172,35.0784190467,7113309361,7113309362,1745036663730,48.541256,35.078904,120,0,528.320658352,1746544179660,0.1734796,0.8991031,9.722636,1746544179662,0.01863084,0.01404949,-0.006108473,1746544179644,-13.9,2.0875,-15.5,1746544179592,1003.908,1746544176601,13,0,0,20.083,-0.03465012,25.67483
1746544179526,1746544179050,48.536505,35.078984,10,4,4.79999995232,16,-177.243013119,48.5366863172,35.0784190467,7113309361,7113309362,1745036663730,48.541256,35.078904,120,0,528.320658352,1746544179696,0.03649054,1.321436,8.806784,1746544179662,0.01863084,0.01404949,-0.006108473,1746544179644,-13.9,2.0875,-15.5,1746544179592,1003.908,1746544176601,13,0,0,20.08179,-0.03433033,25.67483
1746544179530,1746544179050,48.536505,35.078984,10,4,4.79999995232,16,-177.243013119,48.5366863172,35.0784190467,7113309361,7113309362,1745036663730,48.541256,35.078904,120,0,528.320658352,1746544179696,0.03649054,1.321436,8.806784,1746544179699,0.02305948,-0.03054236,-0.002748813,1746544179644,-13.9,2.0875,-15.5,1746544179592,1003.908,1746544176601,13,0,0,20.08179,-0.03433033,25.67483
1746544179551,1746544179050,48.536505,35.078984,10,4,4.79999995232,16,-177.243013119,48.5366863172,35.0784190467,7113309361,7113309362,1745036663730,48.541256,35.078904,120,0,528.320658352,1746544179696,0.03649054,1.321436,8.806784,1746544179699,0.02305948,-0.03054236,-0.002748813,1746544179721,-17.3875,0.725,-15.05,1746544179592,1003.908,1746544176601,13,0,0,20.08179,-0.03433033,25.67483
1746544179557,1746544179050,48.536505,35.078984,10,4,4.79999995232,16,-177.243013095,48.5366863172,35.0784190467,7113309361,7113309362,1745036663730,48.541256,35.078904,120,0,528.320658352,1746544179696,0.03649054,1.321436,8.806784,1746544179726,0.009620844,-0.04031592,-0.00167983,1746544179721,-17.3875,0.725,-15.05,1746544179592,1003.908,1746544176601,13,0,0,20.08179,-0.03433033,25.67483
1746544179561,1746544179050,48.536505,35.078984,10,4,4.79999995232,16,-177.243013095,48.5366773344,35.0784183934,7113309361,7113309362,1745036663730,48.541256,35.078904,120,0,528.320658352,1746544179728,-0.4803591,1.109671,9.802796,1746544179726,0.009620844,-0.04031592,-0.00167983,1746544179721,-17.3875,0.725,-15.05,1746544179592,1003.908,1746544176601,13,0,0,20.08003,-0.063812,25.67483
1746544179600,1746544179050,48.536505,35.078984,10,4,4.79999995232,16,-177.243013095,48.5366773344,35.0784183934,7113309361,7113309362,1745036663730,48.541256,35.078904,120,0,528.320658352,1746544179770,-0.7908279,0.9559326,9.827323,1746544179726,0.009620844,-0.04031592,-0.00167983,1746544179721,-17.3875,0.725,-15.05,1746544179592,1003.908,1746544176601,13,0,0,20.07804,-0.06048192,25.67483
1746544179605,1746544179050,48.536505,35.078984,10,4,4.79999995232,16,-177.243013095,48.5366773344,35.0784183934,7113309361,7113309362,1745036663730,48.541256,35.078904,120,0,528.320658352,1746544179770,-0.7908279,0.9559326,9.827323,1746544179774,0.02229593,0.0103844,-0.007330167,1746544179721,-17.3875,0.725,-15.05,1746544179592,1003.908,1746544176601,13,0,0,20.07804,-0.06048192,25.67483
1746544179631,1746544179050,48.536505,35.078984,10,4,4.79999995232,16,-177.243013095,48.5366773344,35.0784183934,7113309361,7113309362,1745036663730,48.541256,35.078904,120,0,528.320658352,1746544179770,-0.7908279,0.9559326,9.827323,1746544179774,0.02229593,0.0103844,-0.007330167,1746544179803,-16.5375,1.2125,-16.25,1746544179592,1003.908,1746544176601,13,0,0,20.07804,-0.06048192,25.67483
1746544179636,1746544179050,48.536505,35.078984,10,4,4.79999995232,16,-177.243013095,48.5366773344,35.0784183934,7113309361,7113309362,1745036663730,48.541256,35.078904,120,0,528.320658352,1746544179802,-0.186042,1.32682,10.29332,1746544179774,0.02229593,0.0103844,-0.007330167,1746544179803,-16.5375,1.2125,-16.25,1746544179592,1003.908,1746544176601,13,0,0,20.07561,-0.05518011,25.67483
1746544179639,1746544179050,48.536505,35.078984,10,4,4.79999995232,16,-177.243013095,48.5366773344,35.0784183934,7113309361,7113309362,1745036663730,48.541256,35.078904,120,0,528.320658352,1746544179802,-0.186042,1.32682,10.29332,1746544179803,0.0271827,0.0129805,-0.002443389,1746544179803,-16.5375,1.2125,-16.25,1746544179592,1003.908,1746544176601,13,0,0,20.07561,-0.05518011,25.67483
1746544179666,1746544179050,48.536505,35.078984,10,4,4.79999995232,16,-177.243013095,48.5366773344,35.0784183934,7113309361,7113309362,1745036663730,48.541256,35.078904,120,0,528.320658352,1746544179837,0.03888337,0.7088737,9.401401,1746544179803,0.0271827,0.0129805,-0.002443389,1746544179803,-16.5375,1.2125,-16.25,1746544179592,1003.908,1746544176601,13,0,0,20.07415,-0.03587274,25.67483
1746544179672,1746544179050,48.536505,35.078984,10,4,4.79999995232,16,-177.243013095,48.5366773344,35.0784183934,7113309361,7113309362,1745036663730,48.541256,35.078904,120,0,528.320658352,1746544179837,0.03888337,0.7088737,9.401401,1746544179840,-0.01740915,-0.04688253,-0.003206948,1746544179803,-16.5375,1.2125,-16.25,1746544179592,1003.908,1746544176601,13,0,0,20.07415,-0.03587274,25.67483
1746544179700,1746544179050,48.536505,35.078984,10,4,4.79999995232,16,-177.243013095,48.5366683516,35.0784177401,7113309361,7113309362,1745036663730,48.541256,35.078904,120,0,528.320658352,1746544179869,0.4313063,0.8033902,10.09951,1746544179840,-0.01740915,-0.04688253,-0.003206948,1746544179803,-16.5375,1.2125,-16.25,1746544179592,1003.908,1746544176601,13,0,0,20.0727,-0.04705717,25.67483
1746544179709,1746544179050,48.536505,35.078984,10,4,4.79999995232,16,-177.243013095,48.5366683516,35.0784177401,7113309361,7113309362,1745036663730,48.541256,35.078904,120,0,528.320658352,1746544179869,0.4313063,0.8033902,10.09951,1746544179872,-0.0245866,0.005955761,-0.007788302,1746544179803,-16.5375,1.2125,-16.25,1746544179592,1003.908,1746544176601,13,0,0,20.0727,-0.04705717,25.67483
1746544179712,1746544179050,48.536505,35.078984,10,4,4.79999995232,16,-177.243013095,48.5366683516,35.0784177401,7113309361,7113309362,1745036663730,48.541256,35.078904,120,0,528.320658352,1746544179869,0.4313063,0.8033902,10.09951,1746544179872,-0.0245866,0.005955761,-0.007788302,1746544179878,-15.325,2.225,-17.1,1746544179592,1003.908,1746544176601,13,0,0,20.0727,-0.04705717,25.67483
1746544179739,1746544179050,48.536505,35.078984,10,4,4.79999995232,16,-177.243013095,48.5366683516,35.0784177401,7113309361,7113309362,1745036663730,48.541256,35.078904,120,0,528.320658352,1746544179904,0.3942175,0.8183454,10.38066,1746544179872,-0.0245866,0.005955761,-0.007788302,1746544179878,-15.325,2.225,-17.1,1746544179592,1003.908,1746544176601,13,0,0,20.07138,-0.03558303,25.67483
1746544179744,1746544179050,48.536505,35.078984,10,4,4.79999995232,16,-177.243013095,48.5366683516,35.0784177401,7113309361,7113309362,1745036663730,48.541256,35.078904,120,0,528.320658352,1746544179904,0.3942175,0.8183454,10.38066,1746544179907,-0.005497625,-0.02626643,-0.006566608,1746544179878,-15.325,2.225,-17.1,1746544179592,1003.908,1746544176601,13,0,0,20.07138,-0.03558303,25.67483
1746544179771,1746544179050,48.536505,35.078984,10,4,4.79999995232,16,-177.243013095,48.5366683516,35.0784177401,7113309361,7113309362,1745036663730,48.541256,35.078904,120,0,528.320658352,1746544179940,0.5234299,0.7555338,9.604192,1746544179907,-0.005497625,-0.02626643,-0.006566608,1746544179878,-15.325,2.225,-17.1,1746544179592,1003.908,1746544176601,13,0,0,20.07052,-0.01340122,25.67483
1746544179777,1746544179050,48.536505,35.078984,10,4,4.79999995232,16,-177.243013095,48.5366683516,35.0784177401,7113309361,7113309362,1745036663730,48.541256,35.078904,120,0,528.320658352,1746544179940,0.5234299,0.7555338,9.604192,1746544179942,-0.02260135,-0.04214846,0.0004581354,1746544179878,-15.325,2.225,-17.1,1746544179592,1003.908,1746544176601,13,0,0,20.07052,-0.01340122,25.67483
1746544179792,1746544179050,48.536505,35.078984,10,4,4.79999995232,16,-177.243013095,48.5366678,35.0784177,7113309362,7113309363,1745036663730,48.541256,35.078904,120,0,528.320658352,1746544179940,0.5234299,0.7555338,9.604192,1746544179942,-0.02260135,-0.04214846,0.0004581354,1746544179961,-15.2125,1.85,-16.275,1746544179592,1003.908,1746544176601,13,0,0,20.07052,-0.01340122,25.67483
1746544179806,1746544179050,48.536505,35.078984,10,4,4.79999995232,16,169.237151869,48.536658965,35.0784202364,7113309362,7113309363,1745036663730,48.541256,35.078904,120,0,528.320658352,1746544179975,0.3649054,1.194617,9.614362,1746544179942,-0.02260135,-0.04214846,0.0004581354,1746544179961,-15.2125,1.85,-16.275,1746544179592,1003.908,1746544176601,13,0,0,20.06996,-0.01755128,25.67483
1746544179809,1746544179050,48.536505,35.078984,10,4,4.79999995232,16,169.237151869,48.536658965,35.0784202364,7113309362,7113309363,1745036663730,48.541256,35.078904,120,0,528.320658352,1746544179975,0.3649054,1.194617,9.614362,1746544179977,-0.03145863,-0.0361927,0.003970507,1746544179961,-15.2125,1.85,-16.275,1746544179592,1003.908,1746544176601,13,0,0,20.06996,-0.01755128,25.67483
1746544179836,1746544179050,48.536505,35.078984,10,4,4.79999995232,16,169.237151869,48.536658965,35.0784202364,7113309362,7113309363,1745036663730,48.541256,35.078904,120,0,528.320658352,1746544179975,0.3649054,1.194617,9.614362,1746544180006,0.007788302,0.05482354,-0.001068983,1746544179961,-15.2125,1.85,-16.275,1746544179592,1003.908,1746544176601,13,0,0,20.06996,-0.01755128,25.67483
1746544179842,1746544179050,48.536505,35.078984,10,4,4.79999995232,16,169.237151869,48.536658965,35.0784202364,7113309362,7113309363,1745036663730,48.541256,35.078904,120,0,528.320658352,1746544180007,-0.3583252,0.9014959,10.18744,1746544180006,0.007788302,0.05482354,-0.001068983,1746544179961,-15.2125,1.85,-16.275,1746544179592,1003.908,1746544176601,13,0,0,20.06931,-0.01961527,25.67483
1746544179867,1746544179050,48.536505,35.078984,10,4,4.79999995232,16,169.237151869,48.536658965,35.0784202364,7113309362,7113309363,1745036663730,48.541256,35.078904,120,0,528.320658352,1746544180037,0.1459622,1.168296,10.07917,1746544180006,0.007788302,0.05482354,-0.001068983,1746544179961,-15.2125,1.85,-16.275,1746544179592,1003.908,1746544176601,13,0,0,20.06892,-0.00510914,25.67483
1746544179872,1746544179050,48.536505,35.078984,10,4,4.79999995232,16,169.237151869,48.536658965,35.0784202364,7113309362,7113309363,1745036663730,48.541256,35.078904,120,0,528.320658352,1746544180037,0.1459622,1.168296,10.07917,1746544180006,0.007788302,0.05482354,-0.001068983,1746544180041,-16.575,0.8,-15.0875,1746544179592,1003.908,1746544176601,13,0,0,20.06892,-0.00510914,25.67483
1746544179875,1746544179050,48.536505,35.078984,10,4,4.79999995232,16,169.237151869,48.536658965,35.0784202364,7113309362,7113309363,1745036663730,48.541256,35.078904,120,0,528.320658352,1746544180037,0.1459622,1.168296,10.07917,1746544180039,0.005192202,0.06444439,0.0001527118,1746544180041,-16.575,0.8,-15.0875,1746544179592,1003.908,1746544176601,13,0,0,20.06892,-0.00510914,25.67483
1746544179900,1746544179050,48.536505,35.078984,10,4,4.79999995232,16,169.237151869,48.536658965,35.0784202364,7113309362,7113309363,1745036663730,48.541256,35.078904,120,0,528.320658352,1746544180071,-0.03409772,-0.1232304,9.489935,1746544180039,0.005192202,0.06444439,0.0001527118,1746544180041,-16.575,0.8,-15.0875,1746544179592,1003.908,1746544176601,13,0,0,20.06893,0.006216226,25.67483
1746544179904,1746544179050,48.536505,35.078984,10,4,4.79999995232,16,169.237151869,48.536658965,35.0784202364,7113309362,7113309363,1745036663730,48.541256,35.078904,120,0,528.320658352,1746544180071,-0.03409772,-0.1232304,9.489935,1746544180072,-0.02412847,0.04107948,-0.002748813,1746544180041,-16.575,0.8,-15.0875,1746544179592,1003.908,1746544176601,13,0,0,20.06893,0.006216226,25.67483
1746544179930,1746544179050,48.536505,35.078984,10,4,4.79999995232,16,169.237151869,48.536658965,35.0784202364,7113309362,7113309363,1745036663730,48.541256,35.078904,120,0,528.320658352,1746544180101,0.7848458,-0.04666004,9.865608,1746544180072,-0.02412847,0.04107948,-0.002748813,1746544180041,-16.575,0.8,-15.0875,1746544179592,1003.908,1746544176601,13,0,0,20.06896,-0.004850193,25.67483
1746544179934,1746544179050,48.536505,35.078984,10,4,4.79999995232,16,169.237151869,48.536658965,35.0784202364,7113309362,7113309363,1745036663730,48.541256,35.078904,120,0,528.320658352,1746544180101,0.7848458,-0.04666004,9.865608,1746544180104,-0.08444963,-0.04443914,0.002290677,1746544180041,-16.575,0.8,-15.0875,1746544179592,1003.908,1746544176601,13,0,0,20.06896,-0.004850193,25.67483
1746544179949,1746544179050,48.536505,35.078984,10,4,4.79999995232,16,169.237151869,48.53665013,35.0784227727,7113309362,7113309363,1745036663730,48.541256,35.078904,120,0,528.320658352,1746544180101,0.7848458,-0.04666004,9.865608,1746544180104,-0.08444963,-0.04443914,0.002290677,1746544180122,-17.5125,0.9875,-16.3625,1746544179592,1003.908,1746544176601,13,0,0,20.06896,-0.004850193,25.67483
1746544179962,1746544179050,48.536505,35.078984,10,4,4.79999995232,16,169.237151869,48.53665013,35.0784227727,7113309362,7113309363,1745036663730,48.541256,35.078904,120,0,528.320658352,1746544180131,-0.8105687,1.510469,10.6361,1746544180104,-0.08444963,-0.04443914,0.002290677,1746544180122,-17.5125,0.9875,-16.3625,1746544179592,1003.908,1746544176601,13,0,0,20.06883,-0.003599023,25.67483
1746544179966,1746544179050,48.536505,35.078984,10,4,4.79999995232,16,169.237151869,48.53665013,35.0784227727,7113309362,7113309363,1745036663730,48.541256,35.078904,120,0,528.320658352,1746544180131,-0.8105687,1.510469,10.6361,1746544180134,-0.08582404,0.03252762,-0.008246438,1746544180122,-17.5125,0.9875,-16.3625,1746544179592,1003.908,1746544176601,13,0,0,20.06883,-0.003599023,25.67483
1746544179971,1746544179050,48.536505,35.078984,10,4,4.79999995232,16,169.237151869,48.53665013,35.0784227727,7113309362,7113309363,1745036663730,48.541256,35.078904,120,0,528.320658352,1746544180131,-0.8105687,1.510469,10.6361,1746544180134,-0.08582404,0.03252762,-0.008246438,1746544180122,-17.5125,0.9875,-16.3625,1746544180143,1003.89,1746544176601,13,0,0,20.06915,0.02495047,25.67483
1746544180004,1746544179050,48.536505,35.078984,10,4,4.79999995232,16,169.237151869,48.53665013,35.0784227727,7113309362,7113309363,1745036663730,48.541256,35.078904,120,0,528.320658352,1746544180174,-0.2045863,0.8949156,10.40459,1746544180134,-0.08582404,0.03252762,-0.008246438,1746544180122,-17.5125,0.9875,-16.3625,1746544180143,1003.89,1746544176601,13,0,0,20.0695,0.03265113,25.67483
1746544180009,1746544179050,48.536505,35.078984,10,4,4.79999995232,16,169.237151869,48.53665013,35.0784227727,7113309362,7113309363,1745036663730,48.541256,35.078904,120,0,528.320658352,1746544180174,-0.2045863,0.8949156,10.40459,1746544180177,-0.04107948,0.02489203,-0.007788302,1746544180122,-17.5125,0.9875,-16.3625,1746544180143,1003.89,1746544176601,13,0,0,20.0695,0.03265113,25.67483
1746544180035,1746544179050,48.536505,35.078984,10,4,4.79999995232,16,169.237151869,48.53665013,35.0784227727,7113309362,7113309363,1745036663730,48.541256,35.078904,120,0,528.320658352,1746544180174,-0.2045863,0.8949156,10.40459,1746544180204,-0.01313322,0.06627693,-0.01710372,1746544180122,-17.5125,0.9875,-16.3625,1746544180143,1003.89,1746544176601,13,0,0,20.0695,0.03265113,25.67483
1746544180038,1746544179050,48.536505,35.078984,10,4,4.79999995232,16,169.237151869,48.53665013,35.0784227727,7113309362,7113309363,1745036663730,48.541256,35.078904,120,0,528.320658352,1746544180206,-0.5982057,1.265205,9.556335,1746544180204,-0.01313322,0.06627693,-0.01710372,1746544180122,-17.5125,0.9875,-16.3625,1746544180143,1003.89,1746544176601,13,0,0,20.07083,0.05320848,25.67483
1746544180042,1746544179050,48.536505,35.078984,10,4,4.79999995232,16,169.237151869,48.53665013,35.0784227727,7113309362,7113309363,1745036663730,48.541256,35.078904,120,0,528.320658352,1746544180206,-0.5982057,1.265205,9.556335,1746544180204,-0.01313322,0.06627693,-0.01710372,1746544180210,-15.225,2.875,-17.075,1746544180143,1003.89,1746544176601,13,0,0,20.07083,0.05320848,25.67483
1746544180057,1746544179050,48.536505,35.078984,10,4,4.79999995232,16,169.237151869,48.53665013,35.0784227727,7113309362,7113309363,1745036663730,48.541256,35.078904,120,0,528.320658352,1746544180206,-0.5982057,1.265205,9.556335,1746544180224,0.02382304,0.0007635591,-0.009773556,1746544180210,-15.225,2.875,-17.075,1746544180143,1003.89,1746544176601,13,0,0,20.07083,0.05320848,25.67483
1746544180063,1746544179050,48.536505,35.078984,10,4,4.79999995232,16,169.237151869,48.53665013,35.0784227727,7113309362,7113309363,1745036663730,48.541256,35.078904,120,0,528.320658352,1746544180234,-0.509073,1.392025,9.442677,1746544180224,0.02382304,0.0007635591,-0.009773556,1746544180210,-15.225,2.875,-17.075,1746544180143,1003.89,1746544176601,13,0,0,20.07247,0.04954899,25.67483
1746544180102,1746544179050,48.536505,35.078984,10,4,4.79999995232,16,169.237151869,48.5366469,35.0784237,7113309363,7113309364,1745036663730,48.541256,35.078904,120,0,528.320658352,1746544180271,-0.4486542,0.7830512,9.61795,1746544180224,0.02382304,0.0007635591,-0.009773556,1746544180210,-15.225,2.875,-17.075,1746544180143,1003.89,1746544176601,13,0,0,20.07377,0.04342897,25.67483
1746544180107,1746544179050,48.536505,35.078984,10,4,4.79999995232,16,169.237151869,48.5366469,35.0784237,7113309363,7113309364,1745036663730,48.541256,35.078904,120,0,528.320658352,1746544180271,-0.4486542,0.7830512,9.61795,1746544180271,-0.03558185,-0.003817795,-0.005497625,1746544180210,-15.225,2.875,-17.075,1746544180143,1003.89,1746544176601,13,0,0,20.07377,0.04342897,25.67483
1746544180134,1746544179050,48.536505,35.078984,10,4,4.79999995232,16,169.237151869,48.5366469,35.0784237,7113309363,7113309364,1745036663730,48.541256,35.078904,120,0,528.320658352,1746544180271,-0.4486542,0.7830512,9.61795,1746544180271,-0.03558185,-0.003817795,-0.005497625,1746544180306,-15.2125,1.7125,-16.2875,1746544180143,1003.89,1746544176601,13,0,0,20.07377,0.04342897,25.67483
1746544180142,1746544179050,48.536505,35.078984,10,4,4.79999995232,16,169.237151869,48.5366469,35.0784237,7113309363,7113309364,1745036663730,48.541256,35.078904,120,0,528.320658352,1746544180304,-0.2536392,0.6849455,9.334999,1746544180271,-0.03558185,-0.003817795,-0.005497625,1746544180306,-15.2125,1.7125,-16.2875,1746544180143,1003.89,1746544176601,13,0,0,20.07532,0.03992357,25.67483
1746544180147,1746544179050,48.536505,35.078984,10,4,4.79999995232,16,169.237151869,48.5366469,35.0784237,7113309363,7113309364,1745036663730,48.541256,35.078904,120,0,528.320658352,1746544180304,-0.2536392,0.6849455,9.334999,1746544180305,-0.01145339,-0.107051,0.001374406,1746544180306,-15.2125,1.7125,-16.2875,1746544180143,1003.89,1746544176601,13,0,0,20.07532,0.03992357,25.67483
1746544180177,1746544179050,48.536505,35.078984,10,4,4.79999995232,16,151.585828086,48.5366389902,35.0784301629,7113309363,7113309364,1745036663730,48.541256,35.078904,120,0,528.320658352,1746544180343,0.02632105,1.001994,9.638289,1746544180305,-0.01145339,-0.107051,0.001374406,1746544180306,-15.2125,1.7125,-16.2875,1746544180143,1003.89,1746544176601,13,0,0,20.07642,0.02720321,25.67483
1746544180203,1746544179050,48.536505,35.078984,10,4,4.79999995232,16,151.585828086,48.5366389902,35.0784301629,7113309363,7113309364,1745036663730,48.541256,35.078904,120,0,528.320658352,1746544180373,-0.2919244,-0.02033899,9.882358,1746544180305,-0.01145339,-0.107051,0.001374406,1746544180306,-15.2125,1.7125,-16.2875,1746544180143,1003.89,1746544176601,13,0,0,20.07745,0.02540309,25.67483
1746544180207,1746544179050,48.536505,35.078984,10,4,4.79999995232,16,151.585828086,48.5366389902,35.0784301629,7113309363,7113309364,1745036663730,48.541256,35.078904,120,0,528.320658352,1746544180373,-0.2919244,-0.02033899,9.882358,1746544180375,-0.0155766,-0.01191152,-0.004123219,1746544180306,-15.2125,1.7125,-16.2875,1746544180143,1003.89,1746544176601,13,0,0,20.07745,0.02540309,25.67483
1746544180228,1746544179050,48.536505,35.078984,10,4,4.79999995232,16,151.585828086,48.5366389902,35.0784301629,7113309363,7113309364,1745036663730,48.541256,35.078904,120,0,528.320658352,1746544180373,-0.2919244,-0.02033899,9.882358,1746544180375,-0.0155766,-0.01191152,-0.004123219,1746544180400,-16.8375,1.3,-15.3875,1746544180143,1003.89,1746544176601,13,0,0,20.07745,0.02540309,25.67483
1746544180234,1746544179050,48.536505,35.078984,10,4,4.79999995232,16,151.585828086,48.5366389902,35.0784301629,7113309363,7113309364,1745036663730,48.541256,35.078904,120,0,528.320658352,1746544180373,-0.2919244,-0.02033899,9.882358,1746544180403,-0.005803049,-0.01282779,0.003206948,1746544180400,-16.8375,1.3,-15.3875,1746544180143,1003.89,1746544176601,13,0,0,20.07745,0.02540309,25.67483
1746544180239,1746544179050,48.536505,35.078984,10,4,4.79999995232,16,151.585828086,48.5366389902,35.0784301629,7113309363,7113309364,1745036663730,48.541256,35.078904,120,0,528.320658352,1746544180405,-0.2584248,1.538585,8.968299,1746544180403,-0.005803049,-0.01282779,0.003206948,1746544180400,-16.8375,1.3,-15.3875,1746544180143,1003.89,1746544176601,13,0,0,20.07824,0.02726837,25.67483
1746544180269,1746544179050,48.536505,35.078984,10,4,4.79999995232,16,151.585828086,48.5366389902,35.0784301629,7113309363,7113309364,1745036663730,48.541256,35.078904,120,0,528.320658352,1746544180405,-0.2584248,1.538585,8.968299,1746544180437,-0.01389678,0.02305948,-0.002748813,1746544180400,-16.8375,1.3,-15.3875,1746544180143,1003.89,1746544176601,13,0,0,20.07824,0.02726837,25.67483
1746544180296,1746544179050,48.536505,35.078984,10,4,4.79999995232,16,151.585828086,48.5366389902,35.0784301629,7113309363,7113309364,1745036663730,48.541256,35.078904,120,0,528.320658352,1746544180405,-0.2584248,1.538585,8.968299,1746544180465,-0.01053711,-0.02382304,0.0006108473,1746544180400,-16.8375,1.3,-15.3875,1746544180143,1003.89,1746544176601,13,0,0,20.07824,0.02726837,25.67483
1746544180301,1746544179050,48.536505,35.078984,10,4,4.79999995232,16,151.585828086,48.5366389902,35.0784301629,7113309363,7113309364,1745036663730,48.541256,35.078904,120,0,528.320658352,1746544180465,0.09930214,0.9583254,9.162716,1746544180465,-0.01053711,-0.02382304,0.0006108473,1746544180400,-16.8375,1.3,-15.3875,1746544180143,1003.89,1746544176601,13,0,0,20.07878,0.006519378,25.67483
1746544180323,1746544179050,48.536505,35.078984,10,4,4.79999995232,16,151.585828086,48.5366389902,35.0784301629,7113309363,7113309364,1745036663730,48.541256,35.078904,120,0,528.320658352,1746544180465,0.09930214,0.9583254,9.162716,1746544180465,-0.01053711,-0.02382304,0.0006108473,1746544180493,-16.7875,1.825,-16.5375,1746544180143,1003.89,1746544176601,13,0,0,20.07878,0.006519378,25.67483
1746544180332,1746544179050,48.536505,35.078984,10,4,4.79999995232,16,151.585828086,48.5366310804,35.0784366258,7113309363,7113309364,1745036663730,48.541256,35.078904,120,0,528.320658352,1746544180499,-0.1172483,1.11027,9.607183,1746544180465,-0.01053711,-0.02382304,0.0006108473,1746544180493,-16.7875,1.825,-16.5375,1746544180143,1003.89,1746544176601,13,0,0,20.07856,-0.01595967,25.67483
1746544180337,1746544179050,48.536505,35.078984,10,4,4.79999995232,16,151.585828086,48.5366310804,35.0784366258,7113309363,7113309364,1745036663730,48.541256,35.078904,120,0,528.320658352,1746544180499,-0.1172483,1.11027,9.607183,1746544180501,0.006261184,-0.06215371,0.0006108473,1746544180493,-16.7875,1.825,-16.5375,1746544180143,1003.89,1746544176601,13,0,0,20.07856,-0.01595967,25.67483
1746544180366,1746544179050,48.536505,35.078984,10,4,4.79999995232,16,151.585828086,48.5366310804,35.0784366258,7113309363,7113309364,1745036663730,48.541256,35.078904,120,0,528.320658352,1746544180533,-0.4319045,0.9571291,9.942777,1746544180501,0.006261184,-0.06215371,0.0006108473,1746544180493,-16.7875,1.825,-16.5375,1746544180143,1003.89,1746544176601,13,0,0,20.07797,-0.01839858,25.67483
1746544180390,1746544179050,48.536505,35.078984,10,4,4.79999995232,16,151.585828086,48.5366310804,35.0784366258,7113309363,7113309364,1745036663730,48.541256,35.078904,120,0,528.320658352,1746544180533,-0.4319045,0.9571291,9.942777,1746544180559,0.04917321,0.03161135,-0.001985254,1746544180493,-16.7875,1.825,-16.5375,1746544180143,1003.89,1746544176601,13,0,0,20.07797,-0.01839858,25.67483
1746544180394,1746544179050,48.536505,35.078984,10,4,4.79999995232,16,151.585828086,48.5366310804,35.0784366258,7113309363,7113309364,1745036663730,48.541256,35.078904,120,0,528.320658352,1746544180560,-0.2697907,1.01695,9.782457,1746544180559,0.04917321,0.03161135,-0.001985254,1746544180493,-16.7875,1.825,-16.5375,1746544180143,1003.89,1746544176601,13,0,0,20.07748,-0.01040276,25.67483
1746544180417,1746544179050,48.536505,35.078984,10,4,4.79999995232,16,151.585828086,48.5366310804,35.0784366258,7113309363,7113309364,1745036663730,48.541256,35.078904,120,0,528.320658352,1746544180560,-0.2697907,1.01695,9.782457,1746544180559,0.04917321,0.03161135,-0.001985254,1746544180590,-14.2875,2.8375,-16.6125,1746544180143,1003.89,1746544176601,13,0,0,20.07748,-0.01040276,25.67483
1746544180423,1746544179050,48.536505,35.078984,10,4,4.79999995232,16,151.585828086,48.5366310804,35.0784366258,7113309363,7113309364,1745036663730,48.541256,35.078904,120,0,528.320658352,1746544180592,0.6388837,-0.4342973,9.516255,1746544180559,0.04917321,0.03161135,-0.001985254,1746544180590,-14.2875,2.8375,-16.6125,1746544180143,1003.89,1746544176601,13,0,0,20.07723,-0.008405629,25.67483
1746544180427,1746544179050,48.536505,35.078984,10,4,4.79999995232,16,151.585828086,48.5366310804,35.0784366258,7113309363,7113309364,1745036663730,48.541256,35.078904,120,0,528.320658352,1746544180592,0.6388837,-0.4342973,9.516255,1746544180594,-0.01985254,0.01328593,-0.005344913,1746544180590,-14.2875,2.8375,-16.6125,1746544180143,1003.89,1746544176601,13,0,0,20.07723,-0.008405629,25.67483
1746544180457,1746544179050,48.536505,35.078984,10,4,4.79999995232,16,151.585828086,48.5366310804,35.0784366258,7113309363,7113309364,1745036663730,48.541256,35.078904,120,0,528.320658352,1746544180592,0.6388837,-0.4342973,9.516255,1746544180621,-0.04978405,-0.04153761,-0.002290677,1746544180590,-14.2875,2.8375,-16.6125,1746544180143,1003.89,1746544176601,13,0,0,20.07723,-0.008405629,25.67483
1746544180460,1746544179050,48.536505,35.078984,10,4,4.79999995232,16,151.585828086,48.5366310804,35.0784366258,7113309363,7113309364,1745036663730,48.541256,35.078904,120,0,528.320658352,1746544180622,-0.1369891,0.8446664,9.245269,1746544180621,-0.04978405,-0.04153761,-0.002290677,1746544180590,-14.2875,2.8375,-16.6125,1746544180143,1003.89,1746544176601,13,0,0,20.07679,-0.01884025,25.67483
1746544180488,1746544179050,48.536505,35.078984,10,4,4.79999995232,16,151.585828086,48.5366310804,35.0784366258,7113309363,7113309364,1745036663730,48.541256,35.078904,120,0,528.320658352,1746544180658,-0.5258228,1.788037,10.267,1746544180621,-0.04978405,-0.04153761,-0.002290677,1746544180590,-14.2875,2.8375,-16.6125,1746544180143,1003.89,1746544176601,13,0,0,20.07602,-0.03257114,25.67483
1746544180493,1746544179050,48.536505,35.078984,10,4,4.79999995232,16,151.585828086,48.5366310804,35.0784366258,7113309363,7113309364,1745036663730,48.541256,35.078904,120,0,528.320658352,1746544180658,-0.5258228,1.788037,10.267,1746544180660,-0.02901524,-0.02183779,-0.008093726,1746544180590,-14.2875,2.8375,-16.6125,1746544180143,1003.89,1746544176601,13,0,0,20.07602,-0.03257114,25.67483
1746544180509,1746544179050,48.536505,35.078984,10,4,4.79999995232,16,140.333676159,48.5366235773,35.0784457696,7113309364,7113309365,1745036663730,48.541256,35.078904,120,0,528.320658352,1746544180658,-0.5258228,1.788037,10.267,1746544180660,-0.02901524,-0.02183779,-0.008093726,1746544180681,-16.5375,1.1875,-15.575,1746544180143,1003.89,1746544176601,13,0,0,20.07602,-0.03257114,25.67483
1746544180518,1746544179050,48.536505,35.078984,10,4,4.79999995232,16,140.333676159,48.5366235773,35.0784457696,7113309364,7113309365,1745036663730,48.541256,35.078904,120,0,528.320658352,1746544180658,-0.5258228,1.788037,10.267,1746544180687,-0.003970507,0.02932067,-0.00503949,1746544180681,-16.5375,1.1875,-15.575,1746544180143,1003.89,1746544176601,13,0,0,20.07602,-0.03257114,25.67483
1746544180522,1746544179050,48.536505,35.078984,10,4,4.79999995232,16,140.333676159,48.5366235773,35.0784457696,7113309364,7113309365,1745036663730,48.541256,35.078904,120,0,528.320658352,1746544180689,-0.01316052,0.7088737,9.753743,1746544180687,-0.003970507,0.02932067,-0.00503949,1746544180681,-16.5375,1.1875,-15.575,1746544180143,1003.89,1746544176601,13,0,0,20.07526,-0.009605372,25.67483
1746544180525,1746544179050,48.536505,35.078984,10,4,4.79999995232,16,140.333676159,48.5366235773,35.0784457696,7113309364,7113309365,1745036663730,48.541256,35.078904,120,0,528.320658352,1746544180689,-0.01316052,0.7088737,9.753743,1746544180687,-0.003970507,0.02932067,-0.00503949,1746544180681,-16.5375,1.1875,-15.575,1746544180691,1003.879,1746544176601,13,0,0,20.07497,-0.00890548,25.67483
1746544180557,1746544179050,48.536505,35.078984,10,4,4.79999995232,16,140.333676159,48.5366235773,35.0784457696,7113309364,7113309365,1745036663730,48.541256,35.078904,120,0,528.320658352,1746544180727,-0.2596213,1.296312,10.1348,1746544180687,-0.003970507,0.02932067,-0.00503949,1746544180681,-16.5375,1.1875,-15.575,1746544180691,1003.879,1746544176601,13,0,0,20.07496,-0.008100409,25.67483
1746544180562,1746544179050,48.536505,35.078984,10,4,4.79999995232,16,140.333676159,48.5366235773,35.0784457696,7113309364,7113309365,1745036663730,48.541256,35.078904,120,0,528.320658352,1746544180727,-0.2596213,1.296312,10.1348,1746544180730,-0.02809897,-0.01206423,-0.001832542,1746544180681,-16.5375,1.1875,-15.575,1746544180691,1003.879,1746544176601,13,0,0,20.07496,-0.008100409,25.67483
1746544180583,1746544179050,48.536505,35.078984,10,4,4.79999995232,16,140.333676159,48.5366235773,35.0784457696,7113309364,7113309365,1745036663730,48.541256,35.078904,120,0,528.320658352,1746544180727,-0.2596213,1.296312,10.1348,1746544180730,-0.02809897,-0.01206423,-0.001832542,1746544180755,-17.5125,0.9875,-15.875,1746544180691,1003.879,1746544176601,13,0,0,20.07496,-0.008100409,25.67483
1746544180589,1746544179050,48.536505,35.078984,10,4,4.79999995232,16,140.333676159,48.5366235773,35.0784457696,7113309364,7113309365,1745036663730,48.541256,35.078904,120,0,528.320658352,1746544180727,-0.2596213,1.296312,10.1348,1746544180759,-0.0006108473,0.04627168,-0.007330167,1746544180755,-17.5125,0.9875,-15.875,1746544180691,1003.879,1746544176601,13,0,0,20.07496,-0.008100409,25.67483
1746544180594,1746544179050,48.536505,35.078984,10,4,4.79999995232,16,140.333676159,48.5366235773,35.0784457696,7113309364,7113309365,1745036663730,48.541256,35.078904,120,0,528.320658352,1746544180760,-0.6388837,0.7944171,9.610174,1746544180759,-0.0006108473,0.04627168,-0.007330167,1746544180755,-17.5125,0.9875,-15.875,1746544180691,1003.879,1746544176601,13,0,0,20.07496,0.008488295,25.67483
1746544180624,1746544179050,48.536505,35.078984,10,4,4.79999995232,16,140.333676159,48.5366235773,35.0784457696,7113309364,7113309365,1745036663730,48.541256,35.078904,120,0,528.320658352,1746544180760,-0.6388837,0.7944171,9.610174,1746544180792,0.003970507,-0.001985254,-0.003970507,1746544180755,-17.5125,0.9875,-15.875,1746544180691,1003.879,1746544176601,13,0,0,20.07496,0.008488295,25.67483
1746544180627,1746544179050,48.536505,35.078984,10,4,4.79999995232,16,140.333676159,48.5366235773,35.0784457696,7113309364,7113309365,1745036663730,48.541256,35.078904,120,0,528.320658352,1746544180794,-0.1028914,0.8446664,10.69771,1746544180792,0.003970507,-0.001985254,-0.003970507,1746544180755,-17.5125,0.9875,-15.875,1746544180691,1003.879,1746544176601,13,0,0,20.07519,0.005208732,25.67483
1746544180653,1746544179050,48.536505,35.078984,10,4,4.79999995232,16,140.333676159,48.5366235773,35.0784457696,7113309364,7113309365,1745036663730,48.541256,35.078904,120,0,528.320658352,1746544180823,0.1316053,0.3625126,10.34537,1746544180792,0.003970507,-0.001985254,-0.003970507,1746544180755,-17.5125,0.9875,-15.875,1746544180691,1003.879,1746544176601,13,0,0,20.07592,0.03762035,25.67483
1746544180658,1746544179050,48.536505,35.078984,10,4,4.79999995232,16,140.333676159,48.5366235773,35.0784457696,7113309364,7113309365,1745036663730,48.541256,35.078904,120,0,528.320658352,1746544180823,0.1316053,0.3625126,10.34537,1746544180826,-0.01832542,0,-0.01023169,1746544180755,-17.5125,0.9875,-15.875,1746544180691,1003.879,1746544176601,13,0,0,20.07592,0.03762035,25.67483
1746544180662,1746544179050,48.536505,35.078984,10,4,4.79999995232,16,140.333676159,48.5366235773,35.0784457696,7113309364,7113309365,1745036663730,48.541256,35.078904,120,0,528.320658352,1746544180823,0.1316053,0.3625126,10.34537,1746544180826,-0.01832542,0,-0.01023169,1746544180835,-14.875,2.0125,-17.625,1746544180691,1003.879,1746544176601,13,0,0,20.07592,0.03762035,25.67483
1746544180677,1746544179050,48.536505,35.078984,10,4,4.79999995232,16,140.333676159,48.5366235773,35.0784457696,7113309364,7113309365,1745036663730,48.541256,35.078904,120,0,528.320658352,1746544180846,0.6125626,0.6556334,9.439087,1746544180826,-0.01832542,0,-0.01023169,1746544180835,-14.875,2.0125,-17.625,1746544180691,1003.879,1746544176601,13,0,0,20.07724,0.05381812,25.67483
1746544180700,1746544179050,48.536505,35.078984,10,4,4.79999995232,16,140.333676159,48.5366235773,35.0784457696,7113309364,7113309365,1745036663730,48.541256,35.078904,120,0,528.320658352,1746544180846,0.6125626,0.6556334,9.439087,1746544180859,-0.01511847,-0.03023694,-0.01527118,1746544180835,-14.875,2.0125,-17.625,1746544180691,1003.879,1746544176601,13,0,0,20.07724,0.05381812,25.67483
1746544180725,1746544179050,48.536505,35.078984,10,4,4.79999995232,16,140.333676159,48.5366235773,35.0784457696,7113309364,7113309365,1745036663730,48.541256,35.078904,120,0,528.320658352,1746544180894,-0.2494518,0.1573281,9.657433,1746544180859,-0.01511847,-0.03023694,-0.01527118,1746544180835,-14.875,2.0125,-17.625,1746544180691,1003.879,1746544176601,13,0,0,20.0784,0.04677689,25.67483
1746544180729,1746544179050,48.536505,35.078984,10,4,4.79999995232,16,140.333676159,48.5366235773,35.0784457696,7113309364,7113309365,1745036663730,48.541256,35.078904,120,0,528.320658352,1746544180894,-0.2494518,0.1573281,9.657433,1746544180897,-0.01084254,-0.05909947,-0.01542389,1746544180835,-14.875,2.0125,-17.625,1746544180691,1003.879,1746544176601,13,0,0,20.0784,0.04677689,25.67483
1746544180751,1746544179050,48.536505,35.078984,10,4,4.79999995232,16,140.333676159,48.5366198,35.0784505,7113309365,7113309366,1745036663730,48.541256,35.078904,120,0,528.320658352,1746544180894,-0.2494518,0.1573281,9.657433,1746544180897,-0.01084254,-0.05909947,-0.01542389,1746544180924,-14.8875,1.8875,-16.8,1746544180691,1003.879,1746544176601,13,0,0,20.0784,0.04677689,25.67483
1746544180757,1746544179050,48.536505,35.078984,10,4,4.79999995232,16,140.333676159,48.5366198,35.0784505,7113309365,7113309366,1745036663730,48.541256,35.078904,120,0,528.320658352,1746544180894,-0.2494518,0.1573281,9.657433,1746544180924,-0.01313322,0.002290677,-0.02107423,1746544180924,-14.8875,1.8875,-16.8,1746544180691,1003.879,1746544176601,13,0,0,20.0784,0.04677689,25.67483
1746544180761,1746544179050,48.536505,35.078984,10,4,4.79999995232,16,140.333676159,48.5366198,35.0784505,7113309365,7113309366,1745036663730,48.541256,35.078904,120,0,528.320658352,1746544180926,0.06041877,0.4851448,9.861421,1746544180924,-0.01313322,0.002290677,-0.02107423,1746544180924,-14.8875,1.8875,-16.8,1746544180691,1003.879,1746544176601,13,0,0,20.08053,0.04296859,25.67483
1746544180795,1746544179050,48.536505,35.078984,10,4,4.79999995232,16,140.333676159,48.5366198,35.0784505,7113309365,7113309366,1745036663730,48.541256,35.078904,120,0,528.320658352,1746544180958,0.2488535,0.8368897,9.466006,1746544180924,-0.01313322,0.002290677,-0.02107423,1746544180924,-14.8875,1.8875,-16.8,1746544180691,1003.879,1746544176601,13,0,0,20.08197,0.04656118,25.67483
1746544180798,1746544179050,48.536505,35.078984,10,4,4.79999995232,16,140.333676159,48.5366198,35.0784505,7113309365,7113309366,1745036663730,48.541256,35.078904,120,0,528.320658352,1746544180958,0.2488535,0.8368897,9.466006,1746544180958,0.03588727,0.02748813,-0.01924169,1746544180924,-14.8875,1.8875,-16.8,1746544180691,1003.879,1746544176601,13,0,0,20.08197,0.04656118,25.67483
1746544180828,1746544179050,48.536505,35.078984,10,4,4.79999995232,16,140.333676159,48.5366198,35.0784505,7113309365,7113309366,1745036663730,48.541256,35.078904,120,0,528.320658352,1746544180998,-0.107677,0.7609176,10.0678,1746544180958,0.03588727,0.02748813,-0.01924169,1746544180924,-14.8875,1.8875,-16.8,1746544180691,1003.879,1746544176601,13,0,0,20.08334,0.03911641,25.67483
1746544180832,1746544179050,48.536505,35.078984,10,4,4.79999995232,16,140.333676159,48.5366198,35.0784505,7113309365,7113309366,1745036663730,48.541256,35.078904,120,0,528.320658352,1746544180998,-0.107677,0.7609176,10.0678,1746544181001,0.006413896,0.01252237,-0.01481305,1746544180924,-14.8875,1.8875,-16.8,1746544180691,1003.879,1746544176601,13,0,0,20.08334,0.03911641,25.67483
1746544180846,1746544179050,48.536505,35.078984,10,4,4.79999995232,16,140.333676159,48.5366198,35.0784505,7113309365,7113309366,1745036663730,48.541256,35.078904,120,0,528.320658352,1746544180998,-0.107677,0.7609176,10.0678,1746544181001,0.006413896,0.01252237,-0.01481305,1746544181019,-17.125,0.2375,-15.2625,1746544180691,1003.879,1746544176601,13,0,0,20.08334,0.03911641,25.67483
1746544180859,1746544179050,48.536505,35.078984,10,4,4.79999995232,16,140.333676159,48.5366198,35.0784505,7113309365,7113309366,1745036663730,48.541256,35.078904,120,0,528.320658352,1746544180998,-0.107677,0.7609176,10.0678,1746544181028,0.03329118,0.02275406,-0.009620844,1746544181019,-17.125,0.2375,-15.2625,1746544180691,1003.879,1746544176601,13,0,0,20.08334,0.03911641,25.67483
1746544180864,1746544179050,48.536505,35.078984,10,4,4.79999995232,16,114.212571629,48.5366161117,35.0784628872,7113309365,7113309366,1745036663730,48.541256,35.078904,120,0,528.320658352,1746544181030,0.3481557,0.8650054,8.737391,1746544181028,0.03329118,0.02275406,-0.009620844,1746544181019,-17.125,0.2375,-15.2625,1746544180691,1003.879,1746544176601,13,0,0,20.08518,0.05333013,25.67483
1746544180897,1746544179050,48.536505,35.078984,10,4,4.79999995232,16,114.212571629,48.5366161117,35.0784628872,7113309365,7113309366,1745036663730,48.541256,35.078904,120,0,528.320658352,1746544181030,0.3481557,0.8650054,8.737391,1746544181066,0.03542914,0.04199575,-0.007024744,1746544181019,-17.125,0.2375,-15.2625,1746544180691,1003.879,1746544176601,13,0,0,20.08518,0.05333013,25.67483
1746544180903,1746544179050,48.536505,35.078984,10,4,4.79999995232,16,114.212571629,48.5366161117,35.0784628872,7113309365,7113309366,1745036663730,48.541256,35.078904,120,0,528.320658352,1746544181067,-0.3876373,1.176671,9.178269,1746544181066,0.03542914,0.04199575,-0.007024744,1746544181019,-17.125,0.2375,-15.2625,1746544180691,1003.879,1746544176601,13,0,0,20.08641,0.02352103,25.67483
1746544180920,1746544179050,48.536505,35.078984,10,4,4.79999995232,16,114.212571629,48.5366161117,35.0784628872,7113309365,7113309366,1745036663730,48.541256,35.078904,120,0,528.320658352,1746544181067,-0.3876373,1.176671,9.178269,1746544181086,-0.03023694,-0.02428118,-0.009315421,1746544181019,-17.125,0.2375,-15.2625,1746544180691,1003.879,1746544176601,13,0,0,20.08641,0.02352103,25.67483
1746544180928,1746544179050,48.536505,35.078984,10,4,4.79999995232,16,114.212571629,48.5366161117,35.0784628872,7113309365,7113309366,1745036663730,48.541256,35.078904,120,0,528.320658352,1746544181098,0.06939185,0.4408776,9.589237,1746544181086,-0.03023694,-0.02428118,-0.009315421,1746544181019,-17.125,0.2375,-15.2625,1746544180691,1003.879,1746544176601,13,0,0,20.08697,0.006686866,25.67483
1746544180932,1746544179050,48.536505,35.078984,10,4,4.79999995232,16,114.212571629,48.5366161117,35.0784628872,7113309365,7113309366,1745036663730,48.541256,35.078904,120,0,528.320658352,1746544181098,0.06939185,0.4408776,9.589237,1746544181086,-0.03023694,-0.02428118,-0.009315421,1746544181104,-16.875,1.0375,-15.725,1746544180691,1003.879,1746544176601,13,0,0,20.08697,0.006686866,25.67483
1746544180964,1746544179050,48.536505,35.078984,10,4,4.79999995232,16,114.212571629,48.5366161117,35.0784628872,7113309365,7113309366,1745036663730,48.541256,35.078904,120,0,528.320658352,1746544181125,0.03230311,0.5234299,10.12343,1746544181086,-0.03023694,-0.02428118,-0.009315421,1746544181104,-16.875,1.0375,-15.725,1746544180691,1003.879,1746544176601,13,0,0,20.08711,0.001966531,25.67483
1746544180967,1746544179050,48.536505,35.078984,10,4,4.79999995232,16,114.212571629,48.5366161117,35.0784628872,7113309365,7113309366,1745036663730,48.541256,35.078904,120,0,528.320658352,1746544181125,0.03230311,0.5234299,10.12343,1746544181129,0.01801999,0.0477988,-0.009620844,1746544181104,-16.875,1.0375,-15.725,1746544180691,1003.879,1746544176601,13,0,0,20.08711,0.001966531,25.67483
1746544180985,1746544179050,48.536505,35.078984,10,4,4.79999995232,16,114.212571629,48.5366161117,35.0784628872,7113309365,7113309366,1745036663730,48.541256,35.078904,120,0,528.320658352,1746544181152,-0.3032903,1.378266,10.09532,1746544181129,0.01801999,0.0477988,-0.009620844,1746544181104,-16.875,1.0375,-15.725,1746544180691,1003.879,1746544176601,13,0,0,20.08729,0.01185675,25.67483
1746544180997,1746544179050,48.536505,35.078984,10,4,4.79999995232,16,114.212571629,48.5366124234,35.0784752744,7113309365,7113309366,1745036663730,48.541256,35.078904,120,0,528.320658352,1746544181152,-0.3032903,1.378266,10.09532,1746544181167,0.02657185,0.05741964,-0.01786728,1746544181104,-16.875,1.0375,-15.725,1746544180691,1003.879,1746544176601,13,0,0,20.08729,0.01185675,25.67483
1746544181005,1746544179050,48.536505,35.078984,10,4,4.79999995232,16,114.212571629,48.5366124234,35.0784752744,7113309365,7113309366,1745036663730,48.541256,35.078904,120,0,528.320658352,1746544181152,-0.3032903,1.378266,10.09532,1746544181167,0.02657185,0.05741964,-0.01786728,1746544181177,-14.3625,2.1875,-16.9625,1746544180691,1003.879,1746544176601,13,0,0,20.08729,0.01185675,25.67483
1746544181022,1746544179050,48.536505,35.078984,10,4,4.79999995232,16,114.212571629,48.5366124234,35.0784752744,7113309365,7113309366,1745036663730,48.541256,35.078904,120,0,528.320658352,1746544181193,0.3367898,0.125025,10.2012,1746544181167,0.02657185,0.05741964,-0.01786728,1746544181177,-14.3625,2.1875,-16.9625,1746544180691,1003.879,1746544176601,13,0,0,20.08777,0.02339346,25.67483
1746544181027,1746544179050,48.536505,35.078984,10,4,4.79999995232,16,114.212571629,48.5366124234,35.0784752744,7113309365,7113309366,1745036663730,48.541256,35.078904,120,0,528.320658352,1746544181193,0.3367898,0.125025,10.2012,1746544181195,-0.009162709,0.05070032,-0.0219905,1746544181177,-14.3625,2.1875,-16.9625,1746544180691,1003.879,1746544176601,13,0,0,20.08777,0.02339346,25.67483
1746544181060,1746544179050,48.536505,35.078984,10,4,4.79999995232,16,114.212571629,48.5366124234,35.0784752744,7113309365,7113309366,1745036663730,48.541256,35.078904,120,0,528.320658352,1746544181230,-0.4127619,0.8488538,10.47338,1746544181195,-0.009162709,0.05070032,-0.0219905,1746544181177,-14.3625,2.1875,-16.9625,1746544180691,1003.879,1746544176601,13,0,0,20.08909,0.04090604,25.67483
1746544181064,1746544179050,48.536505,35.078984,10,4,4.79999995232,16,114.212571629,48.5366124234,35.0784752744,7113309365,7113309366,1745036663730,48.541256,35.078904,120,0,528.320658352,1746544181230,-0.4127619,0.8488538,10.47338,1746544181233,-0.01924169,0.05772506,-0.02076881,1746544181177,-14.3625,2.1875,-16.9625,1746544180691,1003.879,1746544176601,13,0,0,20.08909,0.04090604,25.67483
1746544181075,1746544179050,48.536505,35.078984,10,4,4.79999995232,16,114.212571629,48.5366124234,35.0784752744,7113309365,7113309366,1745036663730,48.541256,35.078904,120,0,528.320658352,1746544181230,-0.4127619,0.8488538,10.47338,1746544181233,-0.01924169,0.05772506,-0.02076881,1746544181177,-14.3625,2.1875,-16.9625,1746544181247,1003.92,1746544176601,13,0,0,20.09112,0.068837,25.67483
1746544181091,1746544179050,48.536505,35.078984,10,4,4.79999995232,16,114.212571629,48.5366124234,35.0784752744,7113309365,7113309366,1745036663730,48.541256,35.078904,120,0,528.320658352,1746544181261,0.4785645,0.3391826,10.32682,1746544181233,-0.01924169,0.05772506,-0.02076881,1746544181177,-14.3625,2.1875,-16.9625,1746544181247,1003.92,1746544176601,13,0,0,20.09236,0.07782042,25.67483
1746544181095,1746544179050,48.536505,35.078984,10,4,4.79999995232,16,114.212571629,48.5366124234,35.0784752744,7113309365,7113309366,1745036663730,48.541256,35.078904,120,0,528.320658352,1746544181261,0.4785645,0.3391826,10.32682,1746544181260,0.01068983,0.05222744,-0.02305948,1746544181177,-14.3625,2.1875,-16.9625,1746544181247,1003.92,1746544176601,13,0,0,20.09236,0.07782042,25.67483
1746544181099,1746544179050,48.536505,35.078984,10,4,4.79999995232,16,114.212571629,48.5366124234,35.0784752744,7113309365,7113309366,1745036663730,48.541256,35.078904,120,0,528.320658352,1746544181261,0.4785645,0.3391826,10.32682,1746544181260,0.01068983,0.05222744,-0.02305948,1746544181267,-15.1125,1.2125,-15.8,1746544181247,1003.92,1746544176601,13,0,0,20.09236,0.07782042,25.67483
1746544181135,1746544179050,48.536505,35.078984,10,4,4.79999995232,16,114.212571629,48.5366092,35.0784861,7113309366,7113309367,1745036663730,48.541256,35.078904,120,0,528.320658352,1746544181292,0.0215354,0.5258228,10.99263,1746544181260,0.01068983,0.05222744,-0.02305948,1746544181267,-15.1125,1.2125,-15.8,1746544181247,1003.92,1746544176601,13,0,0,20.09351,0.08512871,25.67483
1746544181139,1746544179050,48.536505,35.078984,10,4,4.79999995232,16,114.212571629,48.5366092,35.0784861,7113309366,7113309367,1745036663730,48.541256,35.078904,120,0,528.320658352,1746544181292,0.0215354,0.5258228,10.99263,1746544181294,0.001374406,0.01114796,-0.01481305,1746544181267,-15.1125,1.2125,-15.8,1746544181247,1003.92,1746544176601,13,0,0,20.09351,0.08512871,25.67483
1746544181167,1746544179050,48.536505,35.078984,10,4,4.79999995232,16,114.212571629,48.5366092,35.0784861,7113309366,7113309367,1745036663730,48.541256,35.078904,120,0,528.320658352,1746544181292,0.0215354,0.5258228,10.99263,1746544181336,-0.0297788,-0.04245389,-0.01053711,1746544181267,-15.1125,1.2125,-15.8,1746544181247,1003.92,1746544176601,13,0,0,20.09351,0.08512871,25.67483
1746544181171,1746544179050,48.536505,35.078984,10,4,4.79999995232,16,114.212571629,48.5366092,35.0784861,7113309366,7113309367,1745036663730,48.541256,35.078904,120,0,528.320658352,1746544181337,-0.7004988,1.074976,8.892327,1746544181336,-0.0297788,-0.04245389,-0.01053711,1746544181267,-15.1125,1.2125,-15.8,1746544181247,1003.92,1746544176601,13,0,0,20.09673,0.1228665,25.67483
1746544181186,1746544179050,48.536505,35.078984,10,4,4.79999995232,16,114.212571629,48.5366092,35.0784861,7113309366,7113309367,1745036663730,48.541256,35.078904,120,0,528.320658352,1746544181337,-0.7004988,1.074976,8.892327,1746544181336,-0.0297788,-0.04245389,-0.01053711,1746544181358,-17.2375,0.6125,-15.725,1746544181247,1003.92,1746544176601,13,0,0,20.09673,0.1228665,25.67483
1746544181197,1746544179050,48.536505,35.078984,10,4,4.79999995232,16,114.212571629,48.5366092,35.0784861,7113309366,7113309367,1745036663730,48.541256,35.078904,120,0,528.320658352,1746544181368,0.06759724,0.4079763,9.760921,1746544181336,-0.0297788,-0.04245389,-0.01053711,1746544181358,-17.2375,0.6125,-15.725,1746544181247,1003.92,1746544176601,13,0,0,20.10155,0.09137658,25.67483
1746544181205,1746544179050,48.536505,35.078984,10,4,4.79999995232,16,114.212571629,48.5366092,35.0784861,7113309366,7113309367,1745036663730,48.541256,35.078904,120,0,528.320658352,1746544181368,0.06759724,0.4079763,9.760921,1746544181369,-0.03955236,0.0103844,-0.0116061,1746544181358,-17.2375,0.6125,-15.725,1746544181247,1003.92,1746544176601,13,0,0,20.10155,0.09137658,25.67483
1746544181242,1746544179050,48.536505,35.078984,10,4,4.79999995232,16,105.748296163,48.5366067591,35.0784991722,7113309366,7113309367,1745036663730,48.541256,35.078904,120,0,528.320658352,1746544181368,0.06759724,0.4079763,9.760921,1746544181413,-0.07192726,-0.03970507,-0.01710372,1746544181358,-17.2375,0.6125,-15.725,1746544181247,1003.92,1746544176601,13,0,0,20.10155,0.09137658,25.67483
1746544181246,1746544179050,48.536505,35.078984,10,4,4.79999995232,16,105.748296163,48.5366067591,35.0784991722,7113309366,7113309367,1745036663730,48.541256,35.078904,120,0,528.320658352,1746544181413,0.6185446,0.2147558,8.051848,1746544181413,-0.07192726,-0.03970507,-0.01710372,1746544181358,-17.2375,0.6125,-15.725,1746544181247,1003.92,1746544176601,13,0,0,20.10439,0.09185647,25.67483
